Bruker Nano GmbH Berlin, Germany
Esprit 2.x

Date: 8/21/2023 3:27:02 PM
Real time: 59715
Life time: 59176
Pulse density: 7303

Primary energy: 10
Beam current: -1
Take off angle: 35
Tilt angle: 0
Azimut angle: 45

Detector type: Custom type
Window type: slew AP3.3
Detector thickness: 0.45
Si dead layer:0

Calibration, lin.: 4.998
Calibration, abs.: -477.257
Mn FWHM: 124.4
Fano factor: 0.109
Channels: 2230

Energy Counts
-0.4773     0
-0.4723     0
-0.4673     0
-0.4623     0
-0.4573     0
-0.4523     0
-0.4473     0
-0.4423     0
-0.4373     0
-0.4323     0
-0.4273     0
-0.4223     0
-0.4173     0
-0.4123     0
-0.4073     0
-0.4023     0
-0.3973     0
-0.3923     0
-0.3873     0
-0.3823     0
-0.3773     0
-0.3723     0
-0.3673     0
-0.3623     0
-0.3573     0
-0.3523     0
-0.3473     0
-0.3423     0
-0.3373     0
-0.3323     0
-0.3273     0
-0.3223     0
-0.3173     0
-0.3123     0
-0.3073     0
-0.3023     0
-0.2973     0
-0.2923     0
-0.2873     0
-0.2823     0
-0.2773     0
-0.2723     0
-0.2673     0
-0.2623     0
-0.2573     0
-0.2523     0
-0.2473     0
-0.2423     0
-0.2373     0
-0.2323     0
-0.2273     0
-0.2223     0
-0.2173     0
-0.2123     0
-0.2073     0
-0.2023     0
-0.1973     0
-0.1923     0
-0.1873     0
-0.1823     0
-0.1773     0
-0.1723     0
-0.1673     0
-0.1624     0
-0.1574     0
-0.1524     0
-0.1474     0
-0.1424     0
-0.1374     0
-0.1324     0
-0.1274     0
-0.1224     0
-0.1174     0
-0.1124     0
-0.1074     0
-0.1024     0
-0.0974     0
-0.0924     0
-0.0874     0
-0.0824     0
-0.0774     0
-0.0724     0
-0.0674     2
-0.0624    13
-0.0574    33
-0.0524    75
-0.0474   146
-0.0424   344
-0.0374   673
-0.0324  1198
-0.0274  1982
-0.0224  2900
-0.0174  4125
-0.0124  5257
-0.0074  6173
-0.0024  6633
 0.0026  6511
 0.0076  6154
 0.0126  5248
 0.0176  4031
 0.0226  2962
 0.0276  1957
 0.0326  1224
 0.0376   671
 0.0426   353
 0.0476   175
 0.0526    81
 0.0576    33
 0.0626    14
 0.0676     3
 0.0726     0
 0.0776     0
 0.0826     0
 0.0876     0
 0.0926     0
 0.0976     0
 0.1026     0
 0.1076     0
 0.1126     1
 0.1176     0
 0.1226    12
 0.1276    78
 0.1326   126
 0.1376   104
 0.1426   104
 0.1476   104
 0.1526    89
 0.1576    87
 0.1626    92
 0.1675    88
 0.1725    85
 0.1775    96
 0.1825    90
 0.1875    85
 0.1925    76
 0.1975    75
 0.2025    96
 0.2075    93
 0.2125   106
 0.2175   116
 0.2225   121
 0.2275   150
 0.2325   201
 0.2375   247
 0.2425   275
 0.2475   329
 0.2525   408
 0.2575   479
 0.2625   530
 0.2675   588
 0.2725   647
 0.2775   619
 0.2825   600
 0.2875   594
 0.2925   513
 0.2975   408
 0.3025   329
 0.3075   272
 0.3125   223
 0.3175   187
 0.3225   148
 0.3275   113
 0.3325   104
 0.3375   100
 0.3425   101
 0.3475   105
 0.3525   119
 0.3575   132
 0.3625   129
 0.3675   134
 0.3725   152
 0.3775   151
 0.3825   138
 0.3875   183
 0.3925   188
 0.3975   173
 0.4025   189
 0.4075   206
 0.4125   214
 0.4175   225
 0.4225   244
 0.4275   257
 0.4325   313
 0.4375   364
 0.4425   390
 0.4475   489
 0.4525   547
 0.4575   742
 0.4625   914
 0.4675  1280
 0.4725  1712
 0.4775  2273
 0.4825  3235
 0.4875  4275
 0.4925  5491
 0.4975  6980
 0.5024  8532
 0.5074 10031
 0.5124 11454
 0.5174 12530
 0.5224 12882
 0.5274 12789
 0.5324 12563
 0.5374 11401
 0.5424 10089
 0.5474  8332
 0.5524  6639
 0.5574  5162
 0.5624  3731
 0.5674  2638
 0.5724  1761
 0.5774  1248
 0.5824   813
 0.5874   505
 0.5924   403
 0.5974   282
 0.6024   238
 0.6074   207
 0.6124   175
 0.6174   182
 0.6224   198
 0.6274   178
 0.6324   188
 0.6374   176
 0.6424   165
 0.6474   187
 0.6524   173
 0.6574   175
 0.6624   190
 0.6674   231
 0.6724   214
 0.6774   227
 0.6824   248
 0.6874   302
 0.6924   327
 0.6974   376
 0.7024   374
 0.7074   404
 0.7124   405
 0.7174   383
 0.7224   363
 0.7274   341
 0.7324   334
 0.7374   306
 0.7424   270
 0.7474   267
 0.7524   237
 0.7574   215
 0.7624   176
 0.7674   184
 0.7724   181
 0.7774   166
 0.7824   129
 0.7874   163
 0.7924   162
 0.7974   144
 0.8024   169
 0.8074   163
 0.8124   132
 0.8174   152
 0.8224   163
 0.8274   163
 0.8324   154
 0.8373   162
 0.8423   145
 0.8473   154
 0.8523   157
 0.8573   159
 0.8623   188
 0.8673   164
 0.8723   169
 0.8773   159
 0.8823   160
 0.8873   158
 0.8923   186
 0.8973   166
 0.9023   208
 0.9073   169
 0.9123   191
 0.9173   184
 0.9223   178
 0.9273   154
 0.9323   173
 0.9373   196
 0.9423   164
 0.9473   180
 0.9523   184
 0.9573   207
 0.9623   212
 0.9673   211
 0.9723   214
 0.9773   232
 0.9823   290
 0.9873   312
 0.9923   402
 0.9973   453
 1.0023   547
 1.0073   673
 1.0123   803
 1.0173   947
 1.0223  1093
 1.0273  1188
 1.0323  1275
 1.0373  1386
 1.0423  1459
 1.0473  1447
 1.0523  1370
 1.0573  1283
 1.0623  1199
 1.0673  1105
 1.0723   979
 1.0773   828
 1.0823   697
 1.0873   586
 1.0923   473
 1.0973   379
 1.1023   321
 1.1073   275
 1.1123   237
 1.1173   219
 1.1223   206
 1.1273   192
 1.1323   176
 1.1373   176
 1.1423   185
 1.1473   200
 1.1523   155
 1.1573   176
 1.1623   178
 1.1672   196
 1.1722   171
 1.1772   141
 1.1822   150
 1.1872   162
 1.1922   181
 1.1972   207
 1.2022   184
 1.2072   186
 1.2122   148
 1.2172   168
 1.2222   188
 1.2272   178
 1.2322   194
 1.2372   195
 1.2422   205
 1.2472   202
 1.2522   197
 1.2572   200
 1.2622   193
 1.2672   196
 1.2722   204
 1.2772   174
 1.2822   177
 1.2872   197
 1.2922   204
 1.2972   202
 1.3022   193
 1.3072   204
 1.3122   178
 1.3172   166
 1.3222   162
 1.3272   180
 1.3322   183
 1.3372   189
 1.3422   175
 1.3472   167
 1.3522   161
 1.3572   192
 1.3622   159
 1.3672   158
 1.3722   167
 1.3772   188
 1.3822   169
 1.3872   170
 1.3922   189
 1.3972   187
 1.4022   181
 1.4072   232
 1.4122   218
 1.4172   264
 1.4222   296
 1.4272   364
 1.4322   428
 1.4372   507
 1.4422   593
 1.4472   764
 1.4522   841
 1.4572   980
 1.4622  1151
 1.4672  1307
 1.4722  1449
 1.4772  1500
 1.4822  1659
 1.4872  1648
 1.4922  1640
 1.4972  1640
 1.5021  1610
 1.5071  1480
 1.5121  1313
 1.5171  1154
 1.5221  1054
 1.5271   944
 1.5321   848
 1.5371   691
 1.5421   581
 1.5471   498
 1.5521   401
 1.5571   349
 1.5621   323
 1.5671   275
 1.5721   228
 1.5771   222
 1.5821   225
 1.5871   205
 1.5921   212
 1.5971   192
 1.6021   183
 1.6071   192
 1.6121   184
 1.6171   178
 1.6221   184
 1.6271   188
 1.6321   188
 1.6371   200
 1.6421   221
 1.6471   265
 1.6521   321
 1.6571   413
 1.6621   525
 1.6671   630
 1.6721   838
 1.6771  1088
 1.6821  1415
 1.6871  1836
 1.6921  2322
 1.6971  2857
 1.7021  3494
 1.7071  4184
 1.7121  4812
 1.7171  5476
 1.7221  6023
 1.7271  6559
 1.7321  7013
 1.7371  7417
 1.7421  7586
 1.7471  7264
 1.7521  7016
 1.7571  6685
 1.7621  6277
 1.7671  5694
 1.7721  5001
 1.7771  4437
 1.7821  3760
 1.7871  3187
 1.7921  2629
 1.7971  2087
 1.8021  1662
 1.8071  1376
 1.8121  1128
 1.8171   939
 1.8221   782
 1.8271   663
 1.8321   577
  1.837   506
  1.842   462
  1.847   432
  1.852   384
  1.857   337
  1.862   325
  1.867   293
  1.872   253
  1.877   239
  1.882   216
  1.887   191
  1.892   185
  1.897   165
  1.902   143
  1.907   141
  1.912   119
  1.917    94
  1.922   104
  1.927   110
  1.932   104
  1.937   108
  1.942   114
  1.947   114
  1.952   106
  1.957   118
  1.962   129
  1.967   137
  1.972   131
  1.977   125
  1.982   142
  1.987   150
  1.992   145
  1.997   141
  2.002   152
  2.007   160
  2.012   158
  2.017   149
  2.022   162
  2.027   172
  2.032   157
  2.037   161
  2.042   146
  2.047   131
  2.052   135
  2.057   135
  2.062   117
  2.067   111
  2.072   119
  2.077   116
  2.082   110
  2.087    85
  2.092    84
  2.097    99
  2.102    90
  2.107    95
  2.112    93
  2.117   104
  2.122   101
  2.127    87
  2.132    87
  2.137    82
  2.142    94
  2.147    90
  2.152    94
  2.157   102
  2.162    94
 2.1669    89
 2.1719    82
 2.1769    78
 2.1819    76
 2.1869    83
 2.1919    88
 2.1969    85
 2.2019    77
 2.2069    78
 2.2119    83
 2.2169    81
 2.2219    76
 2.2269    77
 2.2319    81
 2.2369    85
 2.2419    89
 2.2469    93
 2.2519    97
 2.2569    97
 2.2619    97
 2.2669    95
 2.2719    88
 2.2769    84
 2.2819    84
 2.2869    88
 2.2919    95
 2.2969   100
 2.3019   102
 2.3069   101
 2.3119    95
 2.3169    90
 2.3219    92
 2.3269    96
 2.3319    97
 2.3369    95
 2.3419    97
 2.3469   106
 2.3519   110
 2.3569   106
 2.3619    98
 2.3669    90
 2.3719    86
 2.3769    84
 2.3819    81
 2.3869    81
 2.3919    85
 2.3969    85
 2.4019    87
 2.4069    86
 2.4119    81
 2.4169    79
 2.4219    80
 2.4269    81
 2.4319    84
 2.4369    83
 2.4419    78
 2.4469    80
 2.4519    83
 2.4569    83
 2.4619    86
 2.4669    86
 2.4719    82
 2.4769    80
 2.4819    83
 2.4869    84
 2.4919    78
 2.4969    77
 2.5018    81
 2.5068    79
 2.5118    78
 2.5168    77
 2.5218    74
 2.5268    78
 2.5318    82
 2.5368    81
 2.5418    81
 2.5468    81
 2.5518    80
 2.5568    82
 2.5618    83
 2.5668    79
 2.5718    74
 2.5768    75
 2.5818    80
 2.5868    82
 2.5918    85
 2.5968    87
 2.6018    84
 2.6068    81
 2.6118    83
 2.6168    85
 2.6218    82
 2.6268    81
 2.6318    92
 2.6368    84
 2.6418    79
 2.6468    79
 2.6518    74
 2.6568    73
 2.6618    73
 2.6668    73
 2.6718    71
 2.6768    73
 2.6818    65
 2.6868    79
 2.6918    84
 2.6968    64
 2.7018    84
 2.7068    72
 2.7118    71
 2.7168    71
 2.7218    71
 2.7268    74
 2.7318    66
 2.7368    67
 2.7418    64
 2.7468    85
 2.7518    69
 2.7568    62
 2.7618    59
 2.7668    73
 2.7718    77
 2.7768    68
 2.7818    55
 2.7868    72
 2.7918    60
 2.7968    64
 2.8018    72
 2.8068    69
 2.8118    58
 2.8168    66
 2.8218    70
 2.8268    63
 2.8318    64
 2.8367    71
 2.8417    66
 2.8467    56
 2.8517    88
 2.8567    67
 2.8617    69
 2.8667    63
 2.8717    63
 2.8767    51
 2.8817    70
 2.8867    61
 2.8917    57
 2.8967    57
 2.9017    58
 2.9067    49
 2.9117    69
 2.9167    66
 2.9217    47
 2.9267    62
 2.9317    47
 2.9367    58
 2.9417    55
 2.9467    62
 2.9517    76
 2.9567    79
 2.9617    59
 2.9667    61
 2.9717    70
 2.9767    51
 2.9817    63
 2.9867    58
 2.9917    58
 2.9967    57
 3.0017    63
 3.0067    64
 3.0117    56
 3.0167    65
 3.0217    64
 3.0267    72
 3.0317    66
 3.0367    62
 3.0417    60
 3.0467    50
 3.0517    58
 3.0567    49
 3.0617    61
 3.0667    48
 3.0717    52
 3.0767    62
 3.0817    54
 3.0867    59
 3.0917    66
 3.0967    54
 3.1017    65
 3.1067    63
 3.1117    63
 3.1167    63
 3.1217    58
 3.1267    56
 3.1317    51
 3.1367    59
 3.1417    54
 3.1467    59
 3.1517    50
 3.1567    52
 3.1617    65
 3.1666    46
 3.1716    52
 3.1766    47
 3.1816    58
 3.1866    54
 3.1916    59
 3.1966    57
 3.2016    49
 3.2066    58
 3.2116    68
 3.2166    54
 3.2216    59
 3.2266    52
 3.2316    57
 3.2366    66
 3.2416    57
 3.2466    58
 3.2516    69
 3.2566    65
 3.2616    73
 3.2666    71
 3.2716    75
 3.2766    73
 3.2816    74
 3.2866    74
 3.2916    81
 3.2966    82
 3.3016    82
 3.3066    90
 3.3116    69
 3.3166    78
 3.3216    82
 3.3266    85
 3.3316    60
 3.3366    68
 3.3416    69
 3.3466    78
 3.3516    72
 3.3566    72
 3.3616    53
 3.3666    54
 3.3716    60
 3.3766    59
 3.3816    54
 3.3866    51
 3.3916    51
 3.3966    57
 3.4016    51
 3.4066    48
 3.4116    54
 3.4166    47
 3.4216    55
 3.4266    53
 3.4316    47
 3.4366    55
 3.4416    56
 3.4466    57
 3.4516    58
 3.4566    52
 3.4616    48
 3.4666    38
 3.4716    53
 3.4766    53
 3.4816    46
 3.4866    59
 3.4916    57
 3.4966    43
 3.5015    50
 3.5065    51
 3.5115    56
 3.5165    40
 3.5215    43
 3.5265    36
 3.5315    45
 3.5365    46
 3.5415    43
 3.5465    51
 3.5515    59
 3.5565    44
 3.5615    43
 3.5665    51
 3.5715    57
 3.5765    56
 3.5815    38
 3.5865    54
 3.5915    42
 3.5965    54
 3.6015    49
 3.6065    39
 3.6115    51
 3.6165    52
 3.6215    52
 3.6265    43
 3.6315    43
 3.6365    46
 3.6415    49
 3.6465    42
 3.6515    40
 3.6565    48
 3.6615    62
 3.6665    56
 3.6715    59
 3.6765    60
 3.6815    58
 3.6865    62
 3.6915    52
 3.6965    67
 3.7015    50
 3.7065    56
 3.7115    49
 3.7165    63
 3.7215    44
 3.7265    61
 3.7315    52
 3.7365    55
 3.7415    50
 3.7465    35
 3.7515    45
 3.7565    57
 3.7615    50
 3.7665    56
 3.7715    48
 3.7765    33
 3.7815    35
 3.7865    44
 3.7915    36
 3.7965    44
 3.8015    39
 3.8065    40
 3.8115    36
 3.8165    33
 3.8215    45
 3.8265    40
 3.8315    53
 3.8364    34
 3.8414    39
 3.8464    43
 3.8514    32
 3.8564    37
 3.8614    40
 3.8664    45
 3.8714    36
 3.8764    36
 3.8814    30
 3.8864    37
 3.8914    46
 3.8964    43
 3.9014    34
 3.9064    49
 3.9114    36
 3.9164    40
 3.9214    44
 3.9264    34
 3.9314    38
 3.9364    33
 3.9414    33
 3.9464    32
 3.9514    39
 3.9564    41
 3.9614    40
 3.9664    35
 3.9714    36
 3.9764    37
 3.9814    46
 3.9864    39
 3.9914    34
 3.9964    44
 4.0014    42
 4.0064    41
 4.0114    37
 4.0164    34
 4.0214    39
 4.0264    45
 4.0314    30
 4.0364    27
 4.0414    32
 4.0464    46
 4.0514    43
 4.0564    30
 4.0614    30
 4.0664    34
 4.0714    35
 4.0764    32
 4.0814    30
 4.0864    41
 4.0914    44
 4.0964    36
 4.1014    37
 4.1064    39
 4.1114    36
 4.1164    42
 4.1214    40
 4.1264    47
 4.1314    47
 4.1364    31
 4.1414    33
 4.1464    33
 4.1514    31
 4.1564    34
 4.1614    40
 4.1663    37
 4.1713    35
 4.1763    32
 4.1813    28
 4.1863    33
 4.1913    38
 4.1963    43
 4.2013    28
 4.2063    27
 4.2113    27
 4.2163    23
 4.2213    30
 4.2263    32
 4.2313    40
 4.2363    33
 4.2413    38
 4.2463    32
 4.2513    30
 4.2563    42
 4.2613    41
 4.2663    33
 4.2713    39
 4.2763    34
 4.2813    31
 4.2863    35
 4.2913    40
 4.2963    25
 4.3013    37
 4.3063    42
 4.3113    34
 4.3163    35
 4.3213    35
 4.3263    33
 4.3313    35
 4.3363    26
 4.3413    24
 4.3463    24
 4.3513    28
 4.3563    36
 4.3613    30
 4.3663    39
 4.3713    37
 4.3763    26
 4.3813    33
 4.3863    34
 4.3913    25
 4.3963    27
 4.4013    34
 4.4063    32
 4.4113    32
 4.4163    30
 4.4213    38
 4.4263    35
 4.4313    25
 4.4363    30
 4.4413    29
 4.4463    38
 4.4513    31
 4.4563    30
 4.4613    24
 4.4663    31
 4.4713    35
 4.4763    27
 4.4813    34
 4.4863    34
 4.4913    32
 4.4963    37
 4.5012    40
 4.5062    34
 4.5112    34
 4.5162    36
 4.5212    39
 4.5262    32
 4.5312    31
 4.5362    33
 4.5412    32
 4.5462    32
 4.5512    33
 4.5562    28
 4.5612    31
 4.5662    31
 4.5712    35
 4.5762    35
 4.5812    27
 4.5862    28
 4.5912    33
 4.5962    38
 4.6012    32
 4.6062    28
 4.6112    38
 4.6162    40
 4.6212    36
 4.6262    32
 4.6312    26
 4.6362    31
 4.6412    30
 4.6462    26
 4.6512    30
 4.6562    28
 4.6612    26
 4.6662    33
 4.6712    32
 4.6762    26
 4.6812    27
 4.6862    23
 4.6912    24
 4.6962    28
 4.7012    26
 4.7062    23
 4.7112    21
 4.7162    24
 4.7212    23
 4.7262    20
 4.7312    22
 4.7362    24
 4.7412    27
 4.7462    28
 4.7512    24
 4.7562    27
 4.7612    32
 4.7662    29
 4.7712    19
 4.7762    22
 4.7812    31
 4.7862    33
 4.7912    27
 4.7962    23
 4.8012    23
 4.8062    26
 4.8112    28
 4.8162    30
 4.8212    29
 4.8262    24
 4.8312    27
 4.8361    31
 4.8411    36
 4.8461    34
 4.8511    25
 4.8561    24
 4.8611    30
 4.8661    34
 4.8711    29
 4.8761    24
 4.8811    24
 4.8861    23
 4.8911    27
 4.8961    25
 4.9011    25
 4.9061    28
 4.9111    28
 4.9161    28
 4.9211    22
 4.9261    22
 4.9311    26
 4.9361    25
 4.9411    23
 4.9461    23
 4.9511    29
 4.9561    29
 4.9611    30
 4.9661    32
 4.9711    32
 4.9761    29
 4.9811    29
 4.9861    29
 4.9911    27
 4.9961    24
 5.0011    17
 5.0061    19
 5.0111    23
 5.0161    20
 5.0211    23
 5.0261    24
 5.0311    22
 5.0361    20
 5.0411    25
 5.0461    25
 5.0511    26
 5.0561    21
 5.0611    21
 5.0661    25
 5.0711    17
 5.0761    19
 5.0811    19
 5.0861    19
 5.0911    25
 5.0961    26
 5.1011    24
 5.1061    22
 5.1111    20
 5.1161    26
 5.1211    24
 5.1261    20
 5.1311    21
 5.1361    22
 5.1411    20
 5.1461    21
 5.1511    18
 5.1561    24
 5.1611    29
  5.166    29
  5.171    26
  5.176    29
  5.181    35
  5.186    20
  5.191    15
  5.196    21
  5.201    24
  5.206    25
  5.211    22
  5.216    25
  5.221    25
  5.226    22
  5.231    24
  5.236    24
  5.241    15
  5.246    19
  5.251    24
  5.256    24
  5.261    23
  5.266    25
  5.271    29
  5.276    21
  5.281    18
  5.286    16
  5.291    21
  5.296    23
  5.301    24
  5.306    26
  5.311    24
  5.316    23
  5.321    24
  5.326    24
  5.331    19
  5.336    26
  5.341    27
  5.346    22
  5.351    20
  5.356    24
  5.361    21
  5.366    15
  5.371    16
  5.376    19
  5.381    27
  5.386    15
  5.391    13
  5.396    20
  5.401    20
  5.406    29
  5.411    25
  5.416    19
  5.421    18
  5.426    24
  5.431    23
  5.436    20
  5.441    24
  5.446    21
  5.451    19
  5.456    22
  5.461    30
  5.466    13
  5.471    16
  5.476    21
  5.481    22
  5.486    17
  5.491    22
  5.496    26
 5.5009    20
 5.5059    18
 5.5109    17
 5.5159    17
 5.5209    17
 5.5259    20
 5.5309    30
 5.5359    15
 5.5409    16
 5.5459    21
 5.5509    21
 5.5559    13
 5.5609    18
 5.5659    28
 5.5709    19
 5.5759    21
 5.5809    18
 5.5859    16
 5.5909    25
 5.5959    19
 5.6009    20
 5.6059    15
 5.6109    24
 5.6159    18
 5.6209    16
 5.6259    20
 5.6309    23
 5.6359    24
 5.6409    24
 5.6459    20
 5.6509    27
 5.6559    17
 5.6609    12
 5.6659    21
 5.6709    30
 5.6759    17
 5.6809    22
 5.6859    13
 5.6909    18
 5.6959    24
 5.7009    27
 5.7059    18
 5.7109    19
 5.7159    23
 5.7209    18
 5.7259    17
 5.7309    21
 5.7359    15
 5.7409    21
 5.7459    27
 5.7509    22
 5.7559    35
 5.7609    18
 5.7659    22
 5.7709    22
 5.7759    22
 5.7809    25
 5.7859    19
 5.7909    16
 5.7959    21
 5.8009    19
 5.8059    14
 5.8109    17
 5.8159    21
 5.8209    28
 5.8259    19
 5.8309    15
 5.8358    15
 5.8408    17
 5.8458    20
 5.8508    15
 5.8558    18
 5.8608    19
 5.8658    22
 5.8708    10
 5.8758    19
 5.8808    20
 5.8858    21
 5.8908    17
 5.8958    23
 5.9008    25
 5.9058    10
 5.9108    20
 5.9158    10
 5.9208    14
 5.9258    19
 5.9308    19
 5.9358    16
 5.9408    27
 5.9458    19
 5.9508    26
 5.9558     9
 5.9608    15
 5.9658    21
 5.9708    18
 5.9758    11
 5.9808    20
 5.9858    18
 5.9908    18
 5.9958    11
 6.0008    17
 6.0058    20
 6.0108    15
 6.0158    20
 6.0208    15
 6.0258    15
 6.0308    23
 6.0358    20
 6.0408     9
 6.0458    19
 6.0508    14
 6.0558    21
 6.0608     8
 6.0658    14
 6.0708    10
 6.0758    18
 6.0808    12
 6.0858    15
 6.0908    13
 6.0958    18
 6.1008     7
 6.1058    14
 6.1108    14
 6.1158    14
 6.1208    13
 6.1258    11
 6.1308     9
 6.1358    16
 6.1408     9
 6.1458    18
 6.1508    13
 6.1558    19
 6.1608    19
 6.1657    15
 6.1707    21
 6.1757    15
 6.1807     6
 6.1857    13
 6.1907     8
 6.1957     9
 6.2007    12
 6.2057    17
 6.2107     5
 6.2157    11
 6.2207    15
 6.2257    11
 6.2307    18
 6.2357    10
 6.2407    19
 6.2457    11
 6.2507    12
 6.2557     8
 6.2607    16
 6.2657    16
 6.2707     8
 6.2757    14
 6.2807    15
 6.2857    22
 6.2907    21
 6.2957    17
 6.3007    14
 6.3057    20
 6.3107    17
 6.3157    28
 6.3207    16
 6.3257    19
 6.3307    25
 6.3357    32
 6.3407    28
 6.3457    24
 6.3507    28
 6.3557    42
 6.3607    30
 6.3657    38
 6.3707    34
 6.3757    46
 6.3807    41
 6.3857    35
 6.3907    41
 6.3957    48
 6.4007    34
 6.4057    47
 6.4107    39
 6.4157    43
 6.4207    50
 6.4257    33
 6.4307    38
 6.4357    39
 6.4407    38
 6.4457    37
 6.4507    44
 6.4557    27
 6.4607    32
 6.4657    26
 6.4707    24
 6.4757    21
 6.4807    19
 6.4857    26
 6.4907    26
 6.4957    17
 6.5006    11
 6.5056    14
 6.5106    21
 6.5156    17
 6.5206    11
 6.5256    16
 6.5306    16
 6.5356    12
 6.5406    17
 6.5456    15
 6.5506     9
 6.5556     9
 6.5606    11
 6.5656    14
 6.5706    11
 6.5756     8
 6.5806    11
 6.5856    17
 6.5906    17
 6.5956    11
 6.6006    11
 6.6056    11
 6.6106    13
 6.6156     9
 6.6206     9
 6.6256    10
 6.6306     6
 6.6356     9
 6.6406    12
 6.6456    11
 6.6506     7
 6.6556     7
 6.6606    10
 6.6656     9
 6.6706    11
 6.6756    16
 6.6806    15
 6.6856     8
 6.6906     8
 6.6956     8
 6.7006     6
 6.7056    12
 6.7106    14
 6.7156    11
 6.7206    16
 6.7256    10
 6.7306     7
 6.7356    10
 6.7406     9
 6.7456     9
 6.7506    15
 6.7556    14
 6.7606    12
 6.7656     7
 6.7706    19
 6.7756    18
 6.7806     8
 6.7856    15
 6.7906    12
 6.7956    15
 6.8006    11
 6.8056    11
 6.8106     9
 6.8156    18
 6.8206    12
 6.8256    13
 6.8306    11
 6.8355    14
 6.8405    10
 6.8455    12
 6.8505    13
 6.8555    11
 6.8605     8
 6.8655    10
 6.8705    10
 6.8755     9
 6.8805     4
 6.8855    10
 6.8905     4
 6.8955     8
 6.9005    12
 6.9055    10
 6.9105    12
 6.9155    10
 6.9205     5
 6.9255    11
 6.9305    12
 6.9355     7
 6.9405    14
 6.9455    12
 6.9505    11
 6.9555     7
 6.9605    11
 6.9655    11
 6.9705    19
 6.9755    13
 6.9805    11
 6.9855    17
 6.9905    11
 6.9955     5
 7.0005    12
 7.0055    13
 7.0105    17
 7.0155    16
 7.0205     7
 7.0255    15
 7.0305    10
 7.0355    22
 7.0405    10
 7.0455     8
 7.0505    11
 7.0555     7
 7.0605    10
 7.0655    11
 7.0705    14
 7.0755    12
 7.0805    10
 7.0855    17
 7.0905    11
 7.0955     8
 7.1005    14
 7.1055     7
 7.1105    17
 7.1155    10
 7.1205    11
 7.1255    11
 7.1305    11
 7.1355    12
 7.1405     8
 7.1455     9
 7.1505    10
 7.1555     9
 7.1605     8
 7.1654    13
 7.1704     8
 7.1754    10
 7.1804    10
 7.1854     9
 7.1904     9
 7.1954     6
 7.2004     9
 7.2054     8
 7.2104    10
 7.2154     8
 7.2204     6
 7.2254     9
 7.2304     5
 7.2354    11
 7.2404    10
 7.2454    11
 7.2504     5
 7.2554    10
 7.2604     7
 7.2654     4
 7.2704     5
 7.2754    10
 7.2804     6
 7.2854     6
 7.2904     3
 7.2954     8
 7.3004     4
 7.3054     5
 7.3104     7
 7.3154     5
 7.3204     6
 7.3254     7
 7.3304     6
 7.3354     3
 7.3404     5
 7.3454     8
 7.3504    11
 7.3554     8
 7.3604     6
 7.3654     7
 7.3704     7
 7.3754     4
 7.3804     4
 7.3854     4
 7.3904    10
 7.3954     4
 7.4004    11
 7.4054     8
 7.4104     7
 7.4154     8
 7.4204    10
 7.4254     6
 7.4304     8
 7.4354    12
 7.4404     6
 7.4454    10
 7.4504     7
 7.4554    14
 7.4604     4
 7.4654     6
 7.4704     4
 7.4754     5
 7.4804    10
 7.4854     7
 7.4904     9
 7.4954     6
 7.5003     7
 7.5053     7
 7.5103     7
 7.5153    10
 7.5203     8
 7.5253     5
 7.5303     9
 7.5353    11
 7.5403     8
 7.5453     5
 7.5503     6
 7.5553     3
 7.5603     8
 7.5653     6
 7.5703     6
 7.5753     9
 7.5803     7
 7.5853     9
 7.5903     6
 7.5953     2
 7.6003     8
 7.6053     8
 7.6103     6
 7.6153     7
 7.6203     3
 7.6253     3
 7.6303     4
 7.6353     6
 7.6403     2
 7.6453     8
 7.6503     8
 7.6553     9
 7.6603     7
 7.6653     5
 7.6703     6
 7.6753     5
 7.6803     4
 7.6853     6
 7.6903    11
 7.6953     6
 7.7003     8
 7.7053     7
 7.7103     8
 7.7153     5
 7.7203     4
 7.7253     7
 7.7303     3
 7.7353     7
 7.7403     4
 7.7453     4
 7.7503     6
 7.7553     2
 7.7603     5
 7.7653     8
 7.7703     6
 7.7753     4
 7.7803     9
 7.7853     5
 7.7903     3
 7.7953     7
 7.8003     4
 7.8053     5
 7.8103     4
 7.8153     3
 7.8203     5
 7.8253     2
 7.8303     7
 7.8352     4
 7.8402     8
 7.8452     4
 7.8502     3
 7.8552     5
 7.8602    10
 7.8652     7
 7.8702     5
 7.8752     6
 7.8802     4
 7.8852     2
 7.8902     4
 7.8952     9
 7.9002     2
 7.9052     7
 7.9102     4
 7.9152     4
 7.9202     4
 7.9252     4
 7.9302     4
 7.9352     3
 7.9402     3
 7.9452     2
 7.9502     3
 7.9552     9
 7.9602     1
 7.9652     4
 7.9702     4
 7.9752     2
 7.9802     3
 7.9852     4
 7.9902     1
 7.9952     4
 8.0002     5
 8.0052     5
 8.0102     4
 8.0152     9
 8.0202     4
 8.0252    12
 8.0302     1
 8.0352     5
 8.0402     4
 8.0452     2
 8.0502     4
 8.0552     4
 8.0602     1
 8.0652     3
 8.0702     5
 8.0752     1
 8.0802     6
 8.0852     5
 8.0902     4
 8.0952     6
 8.1002     1
 8.1052     5
 8.1102     8
 8.1152     5
 8.1202     3
 8.1252     4
 8.1302     0
 8.1352     4
 8.1402     2
 8.1452     0
 8.1502     5
 8.1552     5
 8.1602     3
 8.1651     3
 8.1701     5
 8.1751     2
 8.1801     3
 8.1851     8
 8.1901     0
 8.1951     8
 8.2001     0
 8.2051     5
 8.2101     8
 8.2151     3
 8.2201     6
 8.2251     6
 8.2301     4
 8.2351     4
 8.2401     3
 8.2451     4
 8.2501     4
 8.2551     2
 8.2601     3
 8.2651     3
 8.2701     3
 8.2751     3
 8.2801     4
 8.2851     0
 8.2901     2
 8.2951     3
 8.3001     5
 8.3051     2
 8.3101     4
 8.3151     2
 8.3201     6
 8.3251     5
 8.3301     4
 8.3351     7
 8.3401     3
 8.3451     1
 8.3501     1
 8.3551     4
 8.3601     2
 8.3651     3
 8.3701     2
 8.3751     3
 8.3801     1
 8.3851     4
 8.3901     6
 8.3951     3
 8.4001     3
 8.4051     2
 8.4101     5
 8.4151     3
 8.4201     0
 8.4251     2
 8.4301     7
 8.4351     2
 8.4401     3
 8.4451     2
 8.4501     2
 8.4551     2
 8.4601     7
 8.4651     3
 8.4701     4
 8.4751     4
 8.4801     4
 8.4851     1
 8.4901     1
 8.4951     5
    8.5     2
  8.505     4
   8.51     1
  8.515     6
   8.52     4
  8.525     5
   8.53     3
  8.535     3
   8.54     3
  8.545     3
   8.55     1
  8.555     4
   8.56     3
  8.565     1
   8.57     1
  8.575     3
   8.58     3
  8.585     1
   8.59     1
  8.595     2
    8.6     2
  8.605     3
   8.61     1
  8.615     1
   8.62     1
  8.625     0
   8.63     0
  8.635     1
   8.64     3
  8.645     1
   8.65     1
  8.655     3
   8.66     2
  8.665     1
   8.67     3
  8.675     3
   8.68     4
  8.685     1
   8.69     3
  8.695     4
    8.7     2
  8.705     3
   8.71     1
  8.715     2
   8.72     2
  8.725     0
   8.73     2
  8.735     4
   8.74     0
  8.745     2
   8.75     2
  8.755     1
   8.76     1
  8.765     0
   8.77     0
  8.775     2
   8.78     1
  8.785     1
   8.79     1
  8.795     1
    8.8     0
  8.805     1
   8.81     2
  8.815     0
   8.82     1
  8.825     0
   8.83     1
 8.8349     0
 8.8399     1
 8.8449     0
 8.8499     0
 8.8549     0
 8.8599     1
 8.8649     0
 8.8699     0
 8.8749     0
 8.8799     0
 8.8849     0
 8.8899     1
 8.8949     1
 8.8999     2
 8.9049     0
 8.9099     0
 8.9149     0
 8.9199     0
 8.9249     0
 8.9299     0
 8.9349     0
 8.9399     0
 8.9449     0
 8.9499     1
 8.9549     0
 8.9599     1
 8.9649     0
 8.9699     0
 8.9749     2
 8.9799     0
 8.9849     1
 8.9899     2
 8.9949     0
 8.9999     1
 9.0049     0
 9.0099     0
 9.0149     1
 9.0199     1
 9.0249     1
 9.0299     0
 9.0349     0
 9.0399     1
 9.0449     0
 9.0499     1
 9.0549     0
 9.0599     1
 9.0649     1
 9.0699     0
 9.0749     0
 9.0799     0
 9.0849     1
 9.0899     1
 9.0949     0
 9.0999     0
 9.1049     1
 9.1099     1
 9.1149     2
 9.1199     0
 9.1249     0
 9.1299     0
 9.1349     1
 9.1399     0
 9.1449     0
 9.1499     0
 9.1549     0
 9.1599     0
 9.1648     0
 9.1698     0
 9.1748     0
 9.1798     0
 9.1848     0
 9.1898     0
 9.1948     0
 9.1998     0
 9.2048     0
 9.2098     0
 9.2148     0
 9.2198     0
 9.2248     0
 9.2298     0
 9.2348     0
 9.2398     0
 9.2448     0
 9.2498     1
 9.2548     0
 9.2598     0
 9.2648     0
 9.2698     1
 9.2748     0
 9.2798     0
 9.2848     0
 9.2898     0
 9.2948     0
 9.2998     0
 9.3048     0
 9.3098     0
 9.3148     0
 9.3198     0
 9.3248     0
 9.3298     0
 9.3348     0
 9.3398     0
 9.3448     0
 9.3498     0
 9.3548     0
 9.3598     0
 9.3648     0
 9.3698     1
 9.3748     0
 9.3798     1
 9.3848     0
 9.3898     0
 9.3948     0
 9.3998     0
 9.4048     1
 9.4098     0
 9.4148     0
 9.4198     0
 9.4248     0
 9.4298     0
 9.4348     2
 9.4398     0
 9.4448     0
 9.4498     0
 9.4548     0
 9.4598     0
 9.4648     0
 9.4698     0
 9.4748     1
 9.4798     0
 9.4848     0
 9.4898     0
 9.4948     0
 9.4997     0
 9.5047     0
 9.5097     0
 9.5147     0
 9.5197     0
 9.5247     0
 9.5297     0
 9.5347     0
 9.5397     0
 9.5447     0
 9.5497     0
 9.5547     0
 9.5597     0
 9.5647     0
 9.5697     0
 9.5747     0
 9.5797     0
 9.5847     0
 9.5897     0
 9.5947     0
 9.5997     0
 9.6047     0
 9.6097     0
 9.6147     0
 9.6197     0
 9.6247     0
 9.6297     0
 9.6347     0
 9.6397     0
 9.6447     0
 9.6497     0
 9.6547     0
 9.6597     0
 9.6647     0
 9.6697     0
 9.6747     0
 9.6797     0
 9.6847     0
 9.6897     0
 9.6947     0
 9.6997     0
 9.7047     0
 9.7097     0
 9.7147     0
 9.7197     0
 9.7247     0
 9.7297     0
 9.7347     0
 9.7397     0
 9.7447     0
 9.7497     0
 9.7547     0
 9.7597     0
 9.7647     0
 9.7697     0
 9.7747     0
 9.7797     0
 9.7847     0
 9.7897     0
 9.7947     0
 9.7997     0
 9.8047     0
 9.8097     0
 9.8147     0
 9.8197     0
 9.8247     0
 9.8297     0
 9.8346     0
 9.8396     0
 9.8446     0
 9.8496     0
 9.8546     0
 9.8596     0
 9.8646     0
 9.8696     0
 9.8746     0
 9.8796     0
 9.8846     0
 9.8896     0
 9.8946     0
 9.8996     0
 9.9046     0
 9.9096     0
 9.9146     0
 9.9196     0
 9.9246     0
 9.9296     0
 9.9346     0
 9.9396     0
 9.9446     0
 9.9496     0
 9.9546     0
 9.9596     0
 9.9646     0
 9.9696     0
 9.9746     0
 9.9796     0
 9.9846     0
 9.9896     0
 9.9946     0
 9.9996     0
10.0046     0
10.0096     0
10.0146     0
10.0196     0
10.0246     0
10.0296     0
10.0346     0
10.0396     0
10.0446     0
10.0496     0
10.0546     0
10.0596     0
10.0646     0
10.0696     0
10.0746     0
10.0796     0
10.0846     0
10.0896     0
10.0946     0
10.0996     0
10.1046     0
10.1096     0
10.1146     0
10.1196     0
10.1246     0
10.1296     0
10.1346     0
10.1396     0
10.1446     0
10.1496     0
10.1546     0
10.1596     0
10.1645     0
10.1695     0
10.1745     0
10.1795     0
10.1845     0
10.1895     0
10.1945     0
10.1995     0
10.2045     0
10.2095     0
10.2145     0
10.2195     0
10.2245     0
10.2295     0
10.2345     0
10.2395     0
10.2445     0
10.2495     0
10.2545     0
10.2595     0
10.2645     0
10.2695     0
10.2745     0
10.2795     0
10.2845     0
10.2895     0
10.2945     0
10.2995     0
10.3045     0
10.3095     0
10.3145     0
10.3195     0
10.3245     0
10.3295     0
10.3345     0
10.3395     0
10.3445     0
10.3495     0
10.3545     0
10.3595     0
10.3645     0
10.3695     0
10.3745     0
10.3795     0
10.3845     0
10.3895     0
10.3945     0
10.3995     0
10.4045     0
10.4095     0
10.4145     0
10.4195     0
10.4245     0
10.4295     0
10.4345     0
10.4395     0
10.4445     0
10.4495     0
10.4545     0
10.4595     0
10.4645     0
10.4695     0
10.4745     0
10.4795     0
10.4845     0
10.4895     0
10.4945     0
10.4994     0
10.5044     0
10.5094     0
10.5144     0
10.5194     0
10.5244     0
10.5294     0
10.5344     0
10.5394     0
10.5444     0
10.5494     0
10.5544     0
10.5594     0
10.5644     0
10.5694     0
10.5744     0
10.5794     0
10.5844     0
10.5894     0
10.5944     0
10.5994     0
10.6044     0
10.6094     0
10.6144     0
10.6194     0
10.6244     0
10.6294     0
10.6344     0
10.6394     0
10.6444     0
10.6494     0
10.6544     0
10.6594     0
10.6644     0
