Bruker Nano GmbH Berlin, Germany
Esprit 2.x

Date: 8/21/2023 2:21:49 PM
Real time: 44557
Life time: 44557
Pulse density: 65

Primary energy: 10
Beam current: -1
Take off angle: 35
Tilt angle: 0
Azimut angle: 45

Detector type: Custom type
Window type: slew AP3.3
Detector thickness: 0.45
Si dead layer:0

Calibration, lin.: 4.998
Calibration, abs.: -477.257
Mn FWHM: 124.4
Fano factor: 0.109
Channels: 1935

Energy Counts
-0.4773    0
-0.4723    0
-0.4673    0
-0.4623    0
-0.4573    0
-0.4523    0
-0.4473    0
-0.4423    0
-0.4373    0
-0.4323    0
-0.4273    0
-0.4223    0
-0.4173    0
-0.4123    0
-0.4073    0
-0.4023    0
-0.3973    0
-0.3923    0
-0.3873    0
-0.3823    0
-0.3773    0
-0.3723    0
-0.3673    0
-0.3623    0
-0.3573    0
-0.3523    0
-0.3473    0
-0.3423    0
-0.3373    0
-0.3323    0
-0.3273    0
-0.3223    0
-0.3173    0
-0.3123    0
-0.3073    0
-0.3023    0
-0.2973    0
-0.2923    0
-0.2873    0
-0.2823    0
-0.2773    0
-0.2723    0
-0.2673    0
-0.2623    0
-0.2573    0
-0.2523    0
-0.2473    0
-0.2423    0
-0.2373    0
-0.2323    0
-0.2273    0
-0.2223    0
-0.2173    0
-0.2123    0
-0.2073    0
-0.2023    0
-0.1973    0
-0.1923    0
-0.1873    0
-0.1823    0
-0.1773    0
-0.1723    0
-0.1673    0
-0.1624    0
-0.1574    0
-0.1524    0
-0.1474    0
-0.1424    0
-0.1374    0
-0.1324    0
-0.1274    0
-0.1224    0
-0.1174    0
-0.1124    0
-0.1074    0
-0.1024    0
-0.0974    0
-0.0924    0
-0.0874    0
-0.0824    0
-0.0774    1
-0.0724    0
-0.0674    2
-0.0624    9
-0.0574   27
-0.0524   52
-0.0474  111
-0.0424  241
-0.0374  470
-0.0324  892
-0.0274 1453
-0.0224 2257
-0.0174 3126
-0.0124 4037
-0.0074 4624
-0.0024 5051
 0.0026 5000
 0.0076 4789
 0.0126 3976
 0.0176 3024
 0.0226 2198
 0.0276 1482
 0.0326  835
 0.0376  498
 0.0426  255
 0.0476  127
 0.0526   53
 0.0576   20
 0.0626   10
 0.0676    2
 0.0726    1
 0.0776    0
 0.0826    0
 0.0876    0
 0.0926    0
 0.0976    0
 0.1026    0
 0.1076    0
 0.1126    0
 0.1176    0
 0.1226    0
 0.1276    2
 0.1326    1
 0.1376    2
 0.1426    0
 0.1476    2
 0.1526    3
 0.1576    0
 0.1626    1
 0.1675    1
 0.1725    0
 0.1775    0
 0.1825    0
 0.1875    2
 0.1925    0
 0.1975    0
 0.2025    1
 0.2075    3
 0.2125    3
 0.2175    3
 0.2225    5
 0.2275    4
 0.2325    4
 0.2375    5
 0.2425    6
 0.2475    9
 0.2525    9
 0.2575   11
 0.2625   14
 0.2675   16
 0.2725   16
 0.2775   16
 0.2825   18
 0.2875   18
 0.2925   14
 0.2975   11
 0.3025    8
 0.3075    7
 0.3125    4
 0.3175    2
 0.3225    2
 0.3275    2
 0.3325    1
 0.3375    1
 0.3425    1
 0.3475    1
 0.3525    1
 0.3575    2
 0.3625    1
 0.3675    1
 0.3725    0
 0.3775    1
 0.3825    2
 0.3875    1
 0.3925    2
 0.3975    5
 0.4025    3
 0.4075    1
 0.4125    1
 0.4175    2
 0.4225    2
 0.4275    1
 0.4325    1
 0.4375    1
 0.4425    3
 0.4475    3
 0.4525    2
 0.4575    4
 0.4625    6
 0.4675    6
 0.4725    6
 0.4775    9
 0.4825   20
 0.4875   23
 0.4925   26
 0.4975   36
 0.5024   41
 0.5074   47
 0.5124   56
 0.5174   57
 0.5224   62
 0.5274   78
 0.5324   75
 0.5374   52
 0.5424   43
 0.5474   38
 0.5524   38
 0.5574   22
 0.5624   31
 0.5674   10
 0.5724    8
 0.5774    7
 0.5824    6
 0.5874    2
 0.5924    2
 0.5974    2
 0.6024    0
 0.6074    2
 0.6124    0
 0.6174    2
 0.6224    3
 0.6274    1
 0.6324    1
 0.6374    1
 0.6424    0
 0.6474    1
 0.6524    1
 0.6574    2
 0.6624    0
 0.6674    1
 0.6724    3
 0.6774    2
 0.6824    2
 0.6874    4
 0.6924    3
 0.6974    2
 0.7024    5
 0.7074    3
 0.7124    7
 0.7174    5
 0.7224    2
 0.7274    4
 0.7324    3
 0.7374    3
 0.7424    1
 0.7474    2
 0.7524    3
 0.7574    2
 0.7624    1
 0.7674    3
 0.7724    1
 0.7774    1
 0.7824    2
 0.7874    0
 0.7924    1
 0.7974    4
 0.8024    1
 0.8074    3
 0.8124    1
 0.8174    0
 0.8224    1
 0.8274    1
 0.8324    0
 0.8373    1
 0.8423    0
 0.8473    2
 0.8523    0
 0.8573    5
 0.8623    2
 0.8673    1
 0.8723    0
 0.8773    5
 0.8823    3
 0.8873    0
 0.8923    0
 0.8973    1
 0.9023    2
 0.9073    0
 0.9123    1
 0.9173    1
 0.9223    1
 0.9273    1
 0.9323    0
 0.9373    0
 0.9423    2
 0.9473    1
 0.9523    1
 0.9573    0
 0.9623    1
 0.9673    0
 0.9723    1
 0.9773    0
 0.9823    0
 0.9873    3
 0.9923    2
 0.9973    1
 1.0023    3
 1.0073    4
 1.0123    2
 1.0173    2
 1.0223    3
 1.0273    2
 1.0323    5
 1.0373    6
 1.0423    3
 1.0473    3
 1.0523    4
 1.0573    1
 1.0623    6
 1.0673    5
 1.0723    3
 1.0773    2
 1.0823    2
 1.0873    5
 1.0923    0
 1.0973    0
 1.1023    1
 1.1073    1
 1.1123    3
 1.1173    1
 1.1223    3
 1.1273    2
 1.1323    0
 1.1373    0
 1.1423    2
 1.1473    0
 1.1523    3
 1.1573    2
 1.1623    0
 1.1672    1
 1.1722    0
 1.1772    0
 1.1822    1
 1.1872    2
 1.1922    0
 1.1972    2
 1.2022    1
 1.2072    3
 1.2122    3
 1.2172    1
 1.2222    2
 1.2272    1
 1.2322    4
 1.2372    3
 1.2422    1
 1.2472    2
 1.2522    2
 1.2572    3
 1.2622    4
 1.2672    6
 1.2722    4
 1.2772    3
 1.2822    1
 1.2872    3
 1.2922    1
 1.2972    2
 1.3022    4
 1.3072    1
 1.3122    1
 1.3172    2
 1.3222    4
 1.3272    0
 1.3322    1
 1.3372    2
 1.3422    3
 1.3472    0
 1.3522    1
 1.3572    2
 1.3622    1
 1.3672    1
 1.3722    3
 1.3772    2
 1.3822    0
 1.3872    3
 1.3922    1
 1.3972    2
 1.4022    1
 1.4072    2
 1.4122    2
 1.4172    1
 1.4222    2
 1.4272    5
 1.4322    6
 1.4372    4
 1.4422    8
 1.4472    7
 1.4522    6
 1.4572    6
 1.4622    8
 1.4672   14
 1.4722   16
 1.4772   15
 1.4822   13
 1.4872   15
 1.4922   13
 1.4972   13
 1.5021   14
 1.5071   14
 1.5121    9
 1.5171   11
 1.5221   11
 1.5271    9
 1.5321   11
 1.5371    7
 1.5421    4
 1.5471    4
 1.5521    7
 1.5571    5
 1.5621    2
 1.5671    1
 1.5721    2
 1.5771    3
 1.5821    3
 1.5871    1
 1.5921    1
 1.5971    2
 1.6021    2
 1.6071    1
 1.6121    3
 1.6171    2
 1.6221    2
 1.6271    3
 1.6321    2
 1.6371    1
 1.6421    4
 1.6471    1
 1.6521    1
 1.6571    0
 1.6621    3
 1.6671    6
 1.6721    7
 1.6771    8
 1.6821    9
 1.6871   16
 1.6921   15
 1.6971   18
 1.7021   23
 1.7071   30
 1.7121   34
 1.7171   34
 1.7221   45
 1.7271   41
 1.7321   46
 1.7371   49
 1.7421   43
 1.7471   44
 1.7521   41
 1.7571   36
 1.7621   34
 1.7671   40
 1.7721   33
 1.7771   25
 1.7821   22
 1.7871   19
 1.7921   17
 1.7971   14
 1.8021   11
 1.8071    6
 1.8121    7
 1.8171    8
 1.8221    6
 1.8271    4
 1.8321    3
  1.837    4
  1.842    2
  1.847    1
  1.852    3
  1.857    2
  1.862    1
  1.867    1
  1.872    0
  1.877    1
  1.882    1
  1.887    1
  1.892    1
  1.897    0
  1.902    1
  1.907    1
  1.912    0
  1.917    0
  1.922    1
  1.927    2
  1.932    1
  1.937    1
  1.942    1
  1.947    1
  1.952    2
  1.957    1
  1.962    1
  1.967    1
  1.972    1
  1.977    1
  1.982    1
  1.987    1
  1.992    2
  1.997    3
  2.002    1
  2.007    1
  2.012    2
  2.017    3
  2.022    1
  2.027    2
  2.032    1
  2.037    0
  2.042    1
  2.047    1
  2.052    1
  2.057    1
  2.062    1
  2.067    0
  2.072    0
  2.077    1
  2.082    0
  2.087    1
  2.092    0
  2.097    1
  2.102    0
  2.107    1
  2.112    1
  2.117    1
  2.122    0
  2.127    0
  2.132    0
  2.137    1
  2.142    1
  2.147    1
  2.152    0
  2.157    0
  2.162    0
 2.1669    1
 2.1719    0
 2.1769    1
 2.1819    1
 2.1869    0
 2.1919    1
 2.1969    2
 2.2019    1
 2.2069    0
 2.2119    1
 2.2169    1
 2.2219    0
 2.2269    3
 2.2319    3
 2.2369    1
 2.2419    0
 2.2469    0
 2.2519    1
 2.2569    0
 2.2619    0
 2.2669    1
 2.2719    1
 2.2769    0
 2.2819    1
 2.2869    1
 2.2919    1
 2.2969    0
 2.3019    0
 2.3069    1
 2.3119    2
 2.3169    1
 2.3219    1
 2.3269    2
 2.3319    1
 2.3369    0
 2.3419    0
 2.3469    0
 2.3519    0
 2.3569    0
 2.3619    0
 2.3669    0
 2.3719    1
 2.3769    0
 2.3819    1
 2.3869    0
 2.3919    0
 2.3969    0
 2.4019    0
 2.4069    0
 2.4119    1
 2.4169    2
 2.4219    1
 2.4269    0
 2.4319    0
 2.4369    0
 2.4419    0
 2.4469    1
 2.4519    0
 2.4569    1
 2.4619    0
 2.4669    0
 2.4719    0
 2.4769    1
 2.4819    0
 2.4869    1
 2.4919    0
 2.4969    1
 2.5018    1
 2.5068    0
 2.5118    0
 2.5168    1
 2.5218    0
 2.5268    0
 2.5318    0
 2.5368    0
 2.5418    2
 2.5468    0
 2.5518    1
 2.5568    0
 2.5618    0
 2.5668    0
 2.5718    0
 2.5768    0
 2.5818    0
 2.5868    0
 2.5918    2
 2.5968    0
 2.6018    0
 2.6068    0
 2.6118    1
 2.6168    3
 2.6218    0
 2.6268    2
 2.6318    0
 2.6368    1
 2.6418    3
 2.6468    0
 2.6518    1
 2.6568    0
 2.6618    0
 2.6668    1
 2.6718    0
 2.6768    0
 2.6818    0
 2.6868    1
 2.6918    0
 2.6968    1
 2.7018    1
 2.7068    1
 2.7118    0
 2.7168    1
 2.7218    0
 2.7268    0
 2.7318    2
 2.7368    0
 2.7418    0
 2.7468    0
 2.7518    1
 2.7568    1
 2.7618    2
 2.7668    0
 2.7718    0
 2.7768    0
 2.7818    0
 2.7868    1
 2.7918    0
 2.7968    1
 2.8018    0
 2.8068    0
 2.8118    0
 2.8168    0
 2.8218    0
 2.8268    1
 2.8318    1
 2.8367    1
 2.8417    0
 2.8467    0
 2.8517    0
 2.8567    1
 2.8617    0
 2.8667    0
 2.8717    0
 2.8767    0
 2.8817    0
 2.8867    0
 2.8917    0
 2.8967    2
 2.9017    0
 2.9067    0
 2.9117    1
 2.9167    0
 2.9217    0
 2.9267    0
 2.9317    1
 2.9367    2
 2.9417    0
 2.9467    0
 2.9517    1
 2.9567    0
 2.9617    0
 2.9667    0
 2.9717    0
 2.9767    1
 2.9817    0
 2.9867    0
 2.9917    1
 2.9967    1
 3.0017    0
 3.0067    1
 3.0117    0
 3.0167    1
 3.0217    0
 3.0267    0
 3.0317    0
 3.0367    0
 3.0417    0
 3.0467    0
 3.0517    1
 3.0567    0
 3.0617    0
 3.0667    0
 3.0717    0
 3.0767    0
 3.0817    1
 3.0867    0
 3.0917    0
 3.0967    0
 3.1017    2
 3.1067    0
 3.1117    0
 3.1167    0
 3.1217    0
 3.1267    1
 3.1317    0
 3.1367    0
 3.1417    0
 3.1467    1
 3.1517    1
 3.1567    0
 3.1617    0
 3.1666    0
 3.1716    0
 3.1766    0
 3.1816    0
 3.1866    0
 3.1916    1
 3.1966    1
 3.2016    0
 3.2066    0
 3.2116    1
 3.2166    1
 3.2216    1
 3.2266    1
 3.2316    0
 3.2366    0
 3.2416    0
 3.2466    2
 3.2516    0
 3.2566    0
 3.2616    1
 3.2666    2
 3.2716    0
 3.2766    0
 3.2816    2
 3.2866    3
 3.2916    0
 3.2966    1
 3.3016    2
 3.3066    0
 3.3116    2
 3.3166    3
 3.3216    1
 3.3266    3
 3.3316    1
 3.3366    0
 3.3416    0
 3.3466    2
 3.3516    0
 3.3566    0
 3.3616    0
 3.3666    1
 3.3716    2
 3.3766    1
 3.3816    3
 3.3866    1
 3.3916    2
 3.3966    0
 3.4016    0
 3.4066    0
 3.4116    0
 3.4166    1
 3.4216    1
 3.4266    1
 3.4316    0
 3.4366    0
 3.4416    2
 3.4466    3
 3.4516    0
 3.4566    1
 3.4616    0
 3.4666    0
 3.4716    0
 3.4766    0
 3.4816    1
 3.4866    0
 3.4916    0
 3.4966    0
 3.5015    0
 3.5065    0
 3.5115    1
 3.5165    0
 3.5215    0
 3.5265    1
 3.5315    1
 3.5365    0
 3.5415    0
 3.5465    0
 3.5515    0
 3.5565    0
 3.5615    0
 3.5665    0
 3.5715    0
 3.5765    1
 3.5815    0
 3.5865    0
 3.5915    0
 3.5965    0
 3.6015    1
 3.6065    0
 3.6115    0
 3.6165    0
 3.6215    0
 3.6265    1
 3.6315    0
 3.6365    2
 3.6415    1
 3.6465    0
 3.6515    0
 3.6565    0
 3.6615    2
 3.6665    0
 3.6715    0
 3.6765    1
 3.6815    0
 3.6865    1
 3.6915    1
 3.6965    0
 3.7015    2
 3.7065    0
 3.7115    0
 3.7165    0
 3.7215    1
 3.7265    0
 3.7315    1
 3.7365    0
 3.7415    0
 3.7465    1
 3.7515    2
 3.7565    2
 3.7615    0
 3.7665    1
 3.7715    1
 3.7765    0
 3.7815    0
 3.7865    0
 3.7915    0
 3.7965    0
 3.8015    0
 3.8065    0
 3.8115    0
 3.8165    1
 3.8215    0
 3.8265    1
 3.8315    1
 3.8364    0
 3.8414    0
 3.8464    0
 3.8514    2
 3.8564    0
 3.8614    0
 3.8664    0
 3.8714    1
 3.8764    0
 3.8814    0
 3.8864    0
 3.8914    0
 3.8964    1
 3.9014    1
 3.9064    0
 3.9114    0
 3.9164    0
 3.9214    1
 3.9264    0
 3.9314    0
 3.9364    1
 3.9414    0
 3.9464    1
 3.9514    2
 3.9564    0
 3.9614    2
 3.9664    1
 3.9714    1
 3.9764    0
 3.9814    0
 3.9864    0
 3.9914    0
 3.9964    0
 4.0014    0
 4.0064    0
 4.0114    0
 4.0164    0
 4.0214    1
 4.0264    0
 4.0314    0
 4.0364    1
 4.0414    0
 4.0464    0
 4.0514    1
 4.0564    0
 4.0614    1
 4.0664    0
 4.0714    0
 4.0764    1
 4.0814    0
 4.0864    0
 4.0914    1
 4.0964    1
 4.1014    0
 4.1064    1
 4.1114    0
 4.1164    2
 4.1214    0
 4.1264    0
 4.1314    0
 4.1364    1
 4.1414    1
 4.1464    0
 4.1514    0
 4.1564    0
 4.1614    1
 4.1663    0
 4.1713    0
 4.1763    1
 4.1813    2
 4.1863    0
 4.1913    0
 4.1963    0
 4.2013    2
 4.2063    0
 4.2113    0
 4.2163    1
 4.2213    0
 4.2263    1
 4.2313    0
 4.2363    0
 4.2413    0
 4.2463    0
 4.2513    0
 4.2563    0
 4.2613    0
 4.2663    1
 4.2713    1
 4.2763    1
 4.2813    1
 4.2863    1
 4.2913    0
 4.2963    0
 4.3013    0
 4.3063    0
 4.3113    0
 4.3163    0
 4.3213    0
 4.3263    1
 4.3313    0
 4.3363    0
 4.3413    0
 4.3463    0
 4.3513    0
 4.3563    0
 4.3613    0
 4.3663    0
 4.3713    0
 4.3763    0
 4.3813    0
 4.3863    0
 4.3913    1
 4.3963    0
 4.4013    1
 4.4063    1
 4.4113    1
 4.4163    0
 4.4213    0
 4.4263    0
 4.4313    0
 4.4363    0
 4.4413    1
 4.4463    0
 4.4513    1
 4.4563    1
 4.4613    0
 4.4663    0
 4.4713    1
 4.4763    1
 4.4813    0
 4.4863    0
 4.4913    1
 4.4963    0
 4.5012    1
 4.5062    1
 4.5112    0
 4.5162    0
 4.5212    1
 4.5262    0
 4.5312    0
 4.5362    0
 4.5412    0
 4.5462    1
 4.5512    1
 4.5562    1
 4.5612    1
 4.5662    0
 4.5712    1
 4.5762    1
 4.5812    0
 4.5862    0
 4.5912    1
 4.5962    0
 4.6012    0
 4.6062    0
 4.6112    1
 4.6162    0
 4.6212    0
 4.6262    0
 4.6312    1
 4.6362    1
 4.6412    1
 4.6462    1
 4.6512    0
 4.6562    0
 4.6612    0
 4.6662    0
 4.6712    0
 4.6762    0
 4.6812    0
 4.6862    0
 4.6912    0
 4.6962    1
 4.7012    0
 4.7062    0
 4.7112    0
 4.7162    0
 4.7212    0
 4.7262    0
 4.7312    1
 4.7362    0
 4.7412    0
 4.7462    0
 4.7512    0
 4.7562    0
 4.7612    0
 4.7662    0
 4.7712    0
 4.7762    0
 4.7812    0
 4.7862    0
 4.7912    0
 4.7962    0
 4.8012    0
 4.8062    0
 4.8112    0
 4.8162    1
 4.8212    1
 4.8262    0
 4.8312    1
 4.8361    0
 4.8411    0
 4.8461    0
 4.8511    0
 4.8561    0
 4.8611    0
 4.8661    1
 4.8711    0
 4.8761    0
 4.8811    0
 4.8861    1
 4.8911    2
 4.8961    1
 4.9011    1
 4.9061    0
 4.9111    1
 4.9161    1
 4.9211    0
 4.9261    1
 4.9311    0
 4.9361    0
 4.9411    0
 4.9461    0
 4.9511    1
 4.9561    0
 4.9611    1
 4.9661    0
 4.9711    0
 4.9761    0
 4.9811    0
 4.9861    0
 4.9911    0
 4.9961    1
 5.0011    0
 5.0061    0
 5.0111    0
 5.0161    1
 5.0211    0
 5.0261    0
 5.0311    0
 5.0361    1
 5.0411    1
 5.0461    0
 5.0511    0
 5.0561    1
 5.0611    1
 5.0661    0
 5.0711    0
 5.0761    0
 5.0811    0
 5.0861    0
 5.0911    0
 5.0961    1
 5.1011    0
 5.1061    0
 5.1111    0
 5.1161    0
 5.1211    0
 5.1261    0
 5.1311    0
 5.1361    0
 5.1411    0
 5.1461    1
 5.1511    1
 5.1561    0
 5.1611    0
  5.166    0
  5.171    0
  5.176    0
  5.181    0
  5.186    0
  5.191    0
  5.196    0
  5.201    0
  5.206    0
  5.211    0
  5.216    0
  5.221    0
  5.226    0
  5.231    0
  5.236    0
  5.241    1
  5.246    0
  5.251    0
  5.256    0
  5.261    1
  5.266    0
  5.271    1
  5.276    1
  5.281    0
  5.286    1
  5.291    0
  5.296    0
  5.301    0
  5.306    1
  5.311    0
  5.316    0
  5.321    0
  5.326    0
  5.331    1
  5.336    0
  5.341    0
  5.346    0
  5.351    0
  5.356    0
  5.361    0
  5.366    0
  5.371    0
  5.376    0
  5.381    1
  5.386    1
  5.391    0
  5.396    1
  5.401    0
  5.406    1
  5.411    0
  5.416    0
  5.421    0
  5.426    1
  5.431    0
  5.436    0
  5.441    0
  5.446    0
  5.451    0
  5.456    0
  5.461    1
  5.466    0
  5.471    0
  5.476    0
  5.481    0
  5.486    0
  5.491    0
  5.496    0
 5.5009    0
 5.5059    0
 5.5109    1
 5.5159    0
 5.5209    0
 5.5259    2
 5.5309    0
 5.5359    2
 5.5409    0
 5.5459    0
 5.5509    1
 5.5559    1
 5.5609    0
 5.5659    0
 5.5709    0
 5.5759    0
 5.5809    0
 5.5859    0
 5.5909    1
 5.5959    0
 5.6009    0
 5.6059    1
 5.6109    0
 5.6159    0
 5.6209    0
 5.6259    0
 5.6309    0
 5.6359    1
 5.6409    0
 5.6459    0
 5.6509    0
 5.6559    0
 5.6609    0
 5.6659    1
 5.6709    0
 5.6759    0
 5.6809    0
 5.6859    1
 5.6909    0
 5.6959    0
 5.7009    2
 5.7059    0
 5.7109    0
 5.7159    0
 5.7209    0
 5.7259    0
 5.7309    0
 5.7359    1
 5.7409    0
 5.7459    0
 5.7509    1
 5.7559    0
 5.7609    0
 5.7659    1
 5.7709    0
 5.7759    1
 5.7809    0
 5.7859    0
 5.7909    0
 5.7959    0
 5.8009    0
 5.8059    0
 5.8109    0
 5.8159    0
 5.8209    0
 5.8259    0
 5.8309    0
 5.8358    0
 5.8408    0
 5.8458    1
 5.8508    1
 5.8558    0
 5.8608    1
 5.8658    0
 5.8708    0
 5.8758    0
 5.8808    0
 5.8858    0
 5.8908    1
 5.8958    0
 5.9008    0
 5.9058    0
 5.9108    0
 5.9158    1
 5.9208    0
 5.9258    0
 5.9308    1
 5.9358    0
 5.9408    1
 5.9458    0
 5.9508    0
 5.9558    0
 5.9608    0
 5.9658    0
 5.9708    0
 5.9758    0
 5.9808    0
 5.9858    0
 5.9908    0
 5.9958    1
 6.0008    0
 6.0058    0
 6.0108    0
 6.0158    0
 6.0208    0
 6.0258    1
 6.0308    0
 6.0358    0
 6.0408    0
 6.0458    0
 6.0508    0
 6.0558    0
 6.0608    0
 6.0658    0
 6.0708    1
 6.0758    0
 6.0808    1
 6.0858    0
 6.0908    0
 6.0958    0
 6.1008    0
 6.1058    0
 6.1108    0
 6.1158    1
 6.1208    0
 6.1258    0
 6.1308    1
 6.1358    0
 6.1408    0
 6.1458    0
 6.1508    1
 6.1558    0
 6.1608    0
 6.1657    0
 6.1707    0
 6.1757    0
 6.1807    0
 6.1857    0
 6.1907    0
 6.1957    1
 6.2007    0
 6.2057    0
 6.2107    0
 6.2157    0
 6.2207    0
 6.2257    0
 6.2307    0
 6.2357    0
 6.2407    0
 6.2457    0
 6.2507    0
 6.2557    1
 6.2607    0
 6.2657    0
 6.2707    0
 6.2757    0
 6.2807    0
 6.2857    2
 6.2907    0
 6.2957    0
 6.3007    1
 6.3057    1
 6.3107    0
 6.3157    1
 6.3207    0
 6.3257    1
 6.3307    0
 6.3357    1
 6.3407    0
 6.3457    0
 6.3507    0
 6.3557    0
 6.3607    1
 6.3657    0
 6.3707    1
 6.3757    0
 6.3807    1
 6.3857    1
 6.3907    1
 6.3957    1
 6.4007    1
 6.4057    0
 6.4107    0
 6.4157    0
 6.4207    0
 6.4257    0
 6.4307    1
 6.4357    0
 6.4407    0
 6.4457    0
 6.4507    1
 6.4557    1
 6.4607    1
 6.4657    0
 6.4707    0
 6.4757    0
 6.4807    1
 6.4857    1
 6.4907    0
 6.4957    0
 6.5006    0
 6.5056    0
 6.5106    0
 6.5156    1
 6.5206    0
 6.5256    0
 6.5306    0
 6.5356    0
 6.5406    0
 6.5456    0
 6.5506    0
 6.5556    0
 6.5606    0
 6.5656    0
 6.5706    0
 6.5756    1
 6.5806    1
 6.5856    1
 6.5906    0
 6.5956    0
 6.6006    0
 6.6056    0
 6.6106    0
 6.6156    0
 6.6206    0
 6.6256    0
 6.6306    0
 6.6356    0
 6.6406    1
 6.6456    0
 6.6506    0
 6.6556    0
 6.6606    1
 6.6656    0
 6.6706    0
 6.6756    0
 6.6806    0
 6.6856    0
 6.6906    0
 6.6956    0
 6.7006    0
 6.7056    1
 6.7106    0
 6.7156    0
 6.7206    0
 6.7256    0
 6.7306    0
 6.7356    1
 6.7406    0
 6.7456    0
 6.7506    0
 6.7556    0
 6.7606    0
 6.7656    0
 6.7706    0
 6.7756    0
 6.7806    0
 6.7856    0
 6.7906    0
 6.7956    0
 6.8006    0
 6.8056    0
 6.8106    0
 6.8156    0
 6.8206    0
 6.8256    0
 6.8306    0
 6.8355    0
 6.8405    0
 6.8455    0
 6.8505    0
 6.8555    0
 6.8605    0
 6.8655    0
 6.8705    0
 6.8755    0
 6.8805    0
 6.8855    0
 6.8905    0
 6.8955    0
 6.9005    0
 6.9055    0
 6.9105    0
 6.9155    0
 6.9205    0
 6.9255    0
 6.9305    0
 6.9355    0
 6.9405    0
 6.9455    0
 6.9505    0
 6.9555    0
 6.9605    1
 6.9655    0
 6.9705    0
 6.9755    0
 6.9805    1
 6.9855    0
 6.9905    0
 6.9955    0
 7.0005    0
 7.0055    0
 7.0105    0
 7.0155    1
 7.0205    0
 7.0255    0
 7.0305    0
 7.0355    1
 7.0405    0
 7.0455    0
 7.0505    1
 7.0555    1
 7.0605    0
 7.0655    1
 7.0705    0
 7.0755    0
 7.0805    0
 7.0855    0
 7.0905    0
 7.0955    0
 7.1005    0
 7.1055    0
 7.1105    0
 7.1155    1
 7.1205    0
 7.1255    0
 7.1305    0
 7.1355    0
 7.1405    0
 7.1455    1
 7.1505    0
 7.1555    0
 7.1605    0
 7.1654    0
 7.1704    0
 7.1754    0
 7.1804    0
 7.1854    0
 7.1904    1
 7.1954    0
 7.2004    0
 7.2054    0
 7.2104    0
 7.2154    0
 7.2204    0
 7.2254    0
 7.2304    0
 7.2354    0
 7.2404    0
 7.2454    0
 7.2504    0
 7.2554    0
 7.2604    0
 7.2654    0
 7.2704    0
 7.2754    0
 7.2804    0
 7.2854    0
 7.2904    0
 7.2954    0
 7.3004    0
 7.3054    0
 7.3104    0
 7.3154    0
 7.3204    0
 7.3254    0
 7.3304    0
 7.3354    0
 7.3404    0
 7.3454    0
 7.3504    0
 7.3554    0
 7.3604    0
 7.3654    0
 7.3704    0
 7.3754    0
 7.3804    0
 7.3854    1
 7.3904    0
 7.3954    0
 7.4004    0
 7.4054    0
 7.4104    0
 7.4154    0
 7.4204    0
 7.4254    0
 7.4304    0
 7.4354    0
 7.4404    0
 7.4454    0
 7.4504    0
 7.4554    0
 7.4604    0
 7.4654    0
 7.4704    0
 7.4754    0
 7.4804    0
 7.4854    0
 7.4904    0
 7.4954    0
 7.5003    1
 7.5053    0
 7.5103    0
 7.5153    0
 7.5203    0
 7.5253    0
 7.5303    2
 7.5353    0
 7.5403    0
 7.5453    0
 7.5503    0
 7.5553    0
 7.5603    1
 7.5653    0
 7.5703    0
 7.5753    0
 7.5803    0
 7.5853    0
 7.5903    0
 7.5953    0
 7.6003    0
 7.6053    0
 7.6103    0
 7.6153    0
 7.6203    0
 7.6253    0
 7.6303    0
 7.6353    0
 7.6403    0
 7.6453    0
 7.6503    0
 7.6553    0
 7.6603    0
 7.6653    0
 7.6703    0
 7.6753    0
 7.6803    0
 7.6853    0
 7.6903    0
 7.6953    0
 7.7003    0
 7.7053    0
 7.7103    0
 7.7153    0
 7.7203    0
 7.7253    0
 7.7303    0
 7.7353    0
 7.7403    0
 7.7453    0
 7.7503    0
 7.7553    1
 7.7603    0
 7.7653    0
 7.7703    0
 7.7753    1
 7.7803    0
 7.7853    0
 7.7903    0
 7.7953    0
 7.8003    0
 7.8053    0
 7.8103    0
 7.8153    0
 7.8203    0
 7.8253    0
 7.8303    0
 7.8352    0
 7.8402    0
 7.8452    0
 7.8502    0
 7.8552    0
 7.8602    0
 7.8652    0
 7.8702    0
 7.8752    0
 7.8802    0
 7.8852    0
 7.8902    0
 7.8952    0
 7.9002    0
 7.9052    0
 7.9102    1
 7.9152    0
 7.9202    0
 7.9252    0
 7.9302    0
 7.9352    0
 7.9402    0
 7.9452    1
 7.9502    0
 7.9552    0
 7.9602    0
 7.9652    0
 7.9702    0
 7.9752    0
 7.9802    0
 7.9852    0
 7.9902    0
 7.9952    0
 8.0002    0
 8.0052    0
 8.0102    0
 8.0152    0
 8.0202    0
 8.0252    0
 8.0302    0
 8.0352    0
 8.0402    0
 8.0452    0
 8.0502    0
 8.0552    0
 8.0602    0
 8.0652    0
 8.0702    0
 8.0752    0
 8.0802    0
 8.0852    0
 8.0902    0
 8.0952    0
 8.1002    0
 8.1052    0
 8.1102    0
 8.1152    0
 8.1202    0
 8.1252    1
 8.1302    0
 8.1352    0
 8.1402    0
 8.1452    0
 8.1502    1
 8.1552    0
 8.1602    0
 8.1651    1
 8.1701    0
 8.1751    0
 8.1801    0
 8.1851    0
 8.1901    0
 8.1951    0
 8.2001    0
 8.2051    0
 8.2101    0
 8.2151    0
 8.2201    0
 8.2251    1
 8.2301    0
 8.2351    0
 8.2401    0
 8.2451    0
 8.2501    0
 8.2551    0
 8.2601    0
 8.2651    0
 8.2701    0
 8.2751    0
 8.2801    0
 8.2851    0
 8.2901    0
 8.2951    0
 8.3001    0
 8.3051    0
 8.3101    0
 8.3151    0
 8.3201    0
 8.3251    0
 8.3301    0
 8.3351    0
 8.3401    0
 8.3451    0
 8.3501    2
 8.3551    0
 8.3601    0
 8.3651    0
 8.3701    0
 8.3751    0
 8.3801    0
 8.3851    0
 8.3901    0
 8.3951    0
 8.4001    0
 8.4051    0
 8.4101    0
 8.4151    0
 8.4201    0
 8.4251    0
 8.4301    0
 8.4351    0
 8.4401    0
 8.4451    0
 8.4501    0
 8.4551    0
 8.4601    0
 8.4651    0
 8.4701    0
 8.4751    0
 8.4801    0
 8.4851    0
 8.4901    0
 8.4951    0
    8.5    0
  8.505    0
   8.51    0
  8.515    0
   8.52    0
  8.525    0
   8.53    0
  8.535    0
   8.54    0
  8.545    0
   8.55    0
  8.555    0
   8.56    0
  8.565    0
   8.57    0
  8.575    0
   8.58    0
  8.585    0
   8.59    0
  8.595    0
    8.6    0
  8.605    0
   8.61    0
  8.615    0
   8.62    0
  8.625    0
   8.63    0
  8.635    0
   8.64    0
  8.645    0
   8.65    0
  8.655    0
   8.66    0
  8.665    0
   8.67    0
  8.675    0
   8.68    0
  8.685    0
   8.69    0
  8.695    0
    8.7    0
  8.705    0
   8.71    0
  8.715    0
   8.72    0
  8.725    0
   8.73    0
  8.735    0
   8.74    0
  8.745    0
   8.75    0
  8.755    0
   8.76    1
  8.765    0
   8.77    0
  8.775    0
   8.78    0
  8.785    0
   8.79    0
  8.795    0
    8.8    0
  8.805    0
   8.81    0
  8.815    0
   8.82    0
  8.825    0
   8.83    0
 8.8349    0
 8.8399    0
 8.8449    0
 8.8499    0
 8.8549    0
 8.8599    0
 8.8649    0
 8.8699    0
 8.8749    0
 8.8799    0
 8.8849    0
 8.8899    0
 8.8949    0
 8.8999    0
 8.9049    0
 8.9099    0
 8.9149    0
 8.9199    0
 8.9249    0
 8.9299    0
 8.9349    0
 8.9399    0
 8.9449    0
 8.9499    0
 8.9549    0
 8.9599    0
 8.9649    0
 8.9699    0
 8.9749    0
 8.9799    0
 8.9849    0
 8.9899    0
 8.9949    0
 8.9999    0
 9.0049    0
 9.0099    0
 9.0149    0
 9.0199    0
 9.0249    0
 9.0299    0
 9.0349    0
 9.0399    0
 9.0449    0
 9.0499    0
 9.0549    0
 9.0599    0
 9.0649    0
 9.0699    0
 9.0749    0
 9.0799    0
 9.0849    0
 9.0899    0
 9.0949    0
 9.0999    0
 9.1049    0
 9.1099    0
 9.1149    0
 9.1199    0
 9.1249    0
 9.1299    0
 9.1349    0
 9.1399    0
 9.1449    0
 9.1499    0
 9.1549    0
 9.1599    0
 9.1648    0
 9.1698    0
 9.1748    0
 9.1798    0
 9.1848    0
 9.1898    0
