Bruker Nano GmbH Berlin, Germany
Esprit 2.x

Date: 8/21/2023 2:22:32 PM
Real time: 70358
Life time: 69977
Pulse density: 5062

Primary energy: 10
Beam current: -1
Take off angle: 35
Tilt angle: 0
Azimut angle: 45

Detector type: Custom type
Window type: slew AP3.3
Detector thickness: 0.45
Si dead layer:0

Calibration, lin.: 4.998
Calibration, abs.: -477.257
Mn FWHM: 124.4
Fano factor: 0.109
Channels: 2637

Energy Counts
-0.4773     0
-0.4723     0
-0.4673     0
-0.4623     0
-0.4573     0
-0.4523     0
-0.4473     0
-0.4423     0
-0.4373     0
-0.4323     0
-0.4273     0
-0.4223     0
-0.4173     0
-0.4123     0
-0.4073     0
-0.4023     0
-0.3973     0
-0.3923     0
-0.3873     0
-0.3823     0
-0.3773     0
-0.3723     0
-0.3673     0
-0.3623     0
-0.3573     0
-0.3523     0
-0.3473     0
-0.3423     0
-0.3373     0
-0.3323     0
-0.3273     0
-0.3223     0
-0.3173     0
-0.3123     0
-0.3073     0
-0.3023     0
-0.2973     0
-0.2923     0
-0.2873     0
-0.2823     0
-0.2773     0
-0.2723     0
-0.2673     0
-0.2623     0
-0.2573     0
-0.2523     0
-0.2473     0
-0.2423     0
-0.2373     0
-0.2323     0
-0.2273     0
-0.2223     0
-0.2173     0
-0.2123     0
-0.2073     0
-0.2023     0
-0.1973     0
-0.1923     0
-0.1873     0
-0.1823     0
-0.1773     0
-0.1723     0
-0.1673     0
-0.1624     0
-0.1574     0
-0.1524     0
-0.1474     0
-0.1424     0
-0.1374     0
-0.1324     0
-0.1274     0
-0.1224     0
-0.1174     0
-0.1124     0
-0.1074     0
-0.1024     0
-0.0974     0
-0.0924     0
-0.0874     0
-0.0824     0
-0.0774     0
-0.0724     3
-0.0674     6
-0.0624    14
-0.0574    39
-0.0524   109
-0.0474   251
-0.0424   454
-0.0374   961
-0.0324  1678
-0.0274  2750
-0.0224  4080
-0.0174  5634
-0.0124  7370
-0.0074  8612
-0.0024  9341
 0.0026  9318
 0.0076  8679
 0.0126  7454
 0.0176  5786
 0.0226  4207
 0.0276  2664
 0.0326  1748
 0.0376   927
 0.0426   465
 0.0476   246
 0.0526   118
 0.0576    46
 0.0626    13
 0.0676     9
 0.0726     6
 0.0776     3
 0.0826     2
 0.0876     2
 0.0926     0
 0.0976     0
 0.1026     1
 0.1076     1
 0.1126     0
 0.1176     0
 0.1226     7
 0.1276    76
 0.1326   130
 0.1376   104
 0.1426    99
 0.1476    92
 0.1526    88
 0.1576    87
 0.1626    86
 0.1675    84
 0.1725    85
 0.1775    87
 0.1825    87
 0.1875    87
 0.1925    81
 0.1975    79
 0.2025    90
 0.2075   107
 0.2125   131
 0.2175   170
 0.2225   206
 0.2275   279
 0.2325   365
 0.2375   434
 0.2425   572
 0.2475   750
 0.2525   939
 0.2575  1150
 0.2625  1349
 0.2675  1491
 0.2725  1552
 0.2775  1539
 0.2825  1520
 0.2875  1432
 0.2925  1211
 0.2975   978
 0.3025   778
 0.3075   586
 0.3125   436
 0.3175   305
 0.3225   213
 0.3275   160
 0.3325   137
 0.3375   128
 0.3425   114
 0.3475   103
 0.3525   101
 0.3575   116
 0.3625   125
 0.3675   132
 0.3725   149
 0.3775   147
 0.3825   151
 0.3875   180
 0.3925   185
 0.3975   195
 0.4025   211
 0.4075   188
 0.4125   219
 0.4175   213
 0.4225   232
 0.4275   233
 0.4325   247
 0.4375   301
 0.4425   317
 0.4475   359
 0.4525   422
 0.4575   577
 0.4625   717
 0.4675  1006
 0.4725  1442
 0.4775  1953
 0.4825  2571
 0.4875  3577
 0.4925  4572
 0.4975  5810
 0.5024  7000
 0.5074  8214
 0.5124  9301
 0.5174 10213
 0.5224 10628
 0.5274 10650
 0.5324 10262
 0.5374  9382
 0.5424  8244
 0.5474  6831
 0.5524  5525
 0.5574  4295
 0.5624  3100
 0.5674  2321
 0.5724  1484
 0.5774  1023
 0.5824   637
 0.5874   448
 0.5924   299
 0.5974   213
 0.6024   169
 0.6074   155
 0.6124   133
 0.6174   135
 0.6224   130
 0.6274   131
 0.6324   120
 0.6374   130
 0.6424   153
 0.6474   108
 0.6524   140
 0.6574   132
 0.6624   175
 0.6674   142
 0.6724   169
 0.6774   178
 0.6824   176
 0.6874   189
 0.6924   222
 0.6974   249
 0.7024   242
 0.7074   236
 0.7124   252
 0.7174   217
 0.7224   242
 0.7274   229
 0.7324   227
 0.7374   188
 0.7424   169
 0.7474   195
 0.7524   176
 0.7574   170
 0.7624   160
 0.7674   148
 0.7724   148
 0.7774   138
 0.7824   144
 0.7874   140
 0.7924   150
 0.7974   134
 0.8024   135
 0.8074   147
 0.8124   143
 0.8174   136
 0.8224   150
 0.8274   174
 0.8324   140
 0.8373   130
 0.8423   112
 0.8473   149
 0.8523   159
 0.8573   158
 0.8623   133
 0.8673   155
 0.8723   161
 0.8773   132
 0.8823   150
 0.8873   147
 0.8923   161
 0.8973   158
 0.9023   142
 0.9073   151
 0.9123   149
 0.9173   143
 0.9223   165
 0.9273   153
 0.9323   126
 0.9373   143
 0.9423   114
 0.9473   159
 0.9523   162
 0.9573   176
 0.9623   178
 0.9673   190
 0.9723   189
 0.9773   215
 0.9823   234
 0.9873   246
 0.9923   315
 0.9973   368
 1.0023   439
 1.0073   523
 1.0123   602
 1.0173   664
 1.0223   797
 1.0273   914
 1.0323   981
 1.0373  1077
 1.0423  1013
 1.0473  1087
 1.0523  1054
 1.0573   989
 1.0623   912
 1.0673   818
 1.0723   741
 1.0773   619
 1.0823   530
 1.0873   431
 1.0923   360
 1.0973   287
 1.1023   259
 1.1073   199
 1.1123   199
 1.1173   187
 1.1223   166
 1.1273   139
 1.1323   144
 1.1373   151
 1.1423   156
 1.1473   134
 1.1523   131
 1.1573   128
 1.1623   164
 1.1672   136
 1.1722   153
 1.1772   162
 1.1822   150
 1.1872   160
 1.1922   170
 1.1972   157
 1.2022   163
 1.2072   200
 1.2122   181
 1.2172   202
 1.2222   227
 1.2272   271
 1.2322   280
 1.2372   281
 1.2422   319
 1.2472   285
 1.2522   314
 1.2572   318
 1.2622   340
 1.2672   305
 1.2722   295
 1.2772   308
 1.2822   295
 1.2872   250
 1.2922   205
 1.2972   200
 1.3022   191
 1.3072   176
 1.3122   186
 1.3172   191
 1.3222   156
 1.3272   131
 1.3322   133
 1.3372   137
 1.3422   138
 1.3472   138
 1.3522   143
 1.3572   132
 1.3622   144
 1.3672   130
 1.3722   133
 1.3772   146
 1.3822   156
 1.3872   122
 1.3922   153
 1.3972   160
 1.4022   172
 1.4072   187
 1.4122   196
 1.4172   214
 1.4222   243
 1.4272   318
 1.4322   366
 1.4372   459
 1.4422   571
 1.4472   674
 1.4522   757
 1.4572   897
 1.4622  1057
 1.4672  1232
 1.4722  1352
 1.4772  1524
 1.4822  1532
 1.4872  1556
 1.4922  1586
 1.4972  1513
 1.5021  1446
 1.5071  1380
 1.5121  1270
 1.5171  1153
 1.5221   959
 1.5271   828
 1.5321   685
 1.5371   625
 1.5421   572
 1.5471   443
 1.5521   376
 1.5571   330
 1.5621   255
 1.5671   227
 1.5721   199
 1.5771   184
 1.5821   165
 1.5871   156
 1.5921   162
 1.5971   153
 1.6021   147
 1.6071   133
 1.6121   137
 1.6171   136
 1.6221   138
 1.6271   135
 1.6321   139
 1.6371   148
 1.6421   178
 1.6471   204
 1.6521   252
 1.6571   290
 1.6621   357
 1.6671   448
 1.6721   609
 1.6771   773
 1.6821  1022
 1.6871  1282
 1.6921  1647
 1.6971  2083
 1.7021  2464
 1.7071  2937
 1.7121  3455
 1.7171  3882
 1.7221  4314
 1.7271  4779
 1.7321  5093
 1.7371  5285
 1.7421  5263
 1.7471  5261
 1.7521  5090
 1.7571  4887
 1.7621  4555
 1.7671  4096
 1.7721  3557
 1.7771  3094
 1.7821  2648
 1.7871  2201
 1.7921  1808
 1.7971  1492
 1.8021  1206
 1.8071   999
 1.8121   807
 1.8171   667
 1.8221   560
 1.8271   477
 1.8321   424
  1.837   376
  1.842   329
  1.847   287
  1.852   261
  1.857   238
  1.862   233
  1.867   209
  1.872   176
  1.877   170
  1.882   155
  1.887   153
  1.892   143
  1.897   120
  1.902   109
  1.907   103
  1.912    97
  1.917    87
  1.922    79
  1.927    81
  1.932    81
  1.937    79
  1.942    69
  1.947    71
  1.952    80
  1.957    72
  1.962    76
  1.967    86
  1.972    82
  1.977    76
  1.982    73
  1.987    82
  1.992    88
  1.997    79
  2.002    69
  2.007    68
  2.012    90
  2.017    90
  2.022    80
  2.027    82
  2.032    80
  2.037    80
  2.042    76
  2.047    74
  2.052    78
  2.057    78
  2.062    73
  2.067    75
  2.072    73
  2.077    68
  2.082    67
  2.087    71
  2.092    68
  2.097    75
  2.102    77
  2.107    61
  2.112    57
  2.117    71
  2.122    70
  2.127    71
  2.132    67
  2.137    57
  2.142    69
  2.147    68
  2.152    59
  2.157    65
  2.162    71
 2.1669    61
 2.1719    63
 2.1769    71
 2.1819    74
 2.1869    68
 2.1919    74
 2.1969    77
 2.2019    66
 2.2069    62
 2.2119    64
 2.2169    66
 2.2219    62
 2.2269    59
 2.2319    69
 2.2369    73
 2.2419    76
 2.2469    69
 2.2519    62
 2.2569    66
 2.2619    68
 2.2669    70
 2.2719    72
 2.2769    74
 2.2819    68
 2.2869    66
 2.2919    77
 2.2969    79
 2.3019    72
 2.3069    83
 2.3119    85
 2.3169    71
 2.3219    61
 2.3269    66
 2.3319    76
 2.3369    76
 2.3419    74
 2.3469    71
 2.3519    74
 2.3569    64
 2.3619    64
 2.3669    59
 2.3719    63
 2.3769    61
 2.3819    66
 2.3869    65
 2.3919    64
 2.3969    62
 2.4019    61
 2.4069    67
 2.4119    68
 2.4169    55
 2.4219    69
 2.4269    76
 2.4319    60
 2.4369    62
 2.4419    62
 2.4469    58
 2.4519    55
 2.4569    57
 2.4619    54
 2.4669    53
 2.4719    57
 2.4769    68
 2.4819    65
 2.4869    64
 2.4919    57
 2.4969    64
 2.5018    64
 2.5068    64
 2.5118    61
 2.5168    49
 2.5218    51
 2.5268    59
 2.5318    47
 2.5368    58
 2.5418    48
 2.5468    60
 2.5518    54
 2.5568    60
 2.5618    71
 2.5668    63
 2.5718    68
 2.5768    70
 2.5818    71
 2.5868    72
 2.5918    77
 2.5968    69
 2.6018    71
 2.6068    77
 2.6118    74
 2.6168    79
 2.6218    74
 2.6268    69
 2.6318    72
 2.6368    84
 2.6418    72
 2.6468    75
 2.6518    57
 2.6568    61
 2.6618    62
 2.6668    69
 2.6718    74
 2.6768    69
 2.6818    65
 2.6868    58
 2.6918    53
 2.6968    57
 2.7018    57
 2.7068    36
 2.7118    40
 2.7168    47
 2.7218    58
 2.7268    50
 2.7318    51
 2.7368    46
 2.7418    60
 2.7468    49
 2.7518    59
 2.7568    48
 2.7618    50
 2.7668    58
 2.7718    55
 2.7768    47
 2.7818    44
 2.7868    41
 2.7918    46
 2.7968    57
 2.8018    47
 2.8068    49
 2.8118    45
 2.8168    39
 2.8218    53
 2.8268    55
 2.8318    55
 2.8367    62
 2.8417    43
 2.8467    46
 2.8517    46
 2.8567    53
 2.8617    54
 2.8667    42
 2.8717    60
 2.8767    42
 2.8817    45
 2.8867    47
 2.8917    43
 2.8967    54
 2.9017    42
 2.9067    44
 2.9117    46
 2.9167    62
 2.9217    31
 2.9267    58
 2.9317    45
 2.9367    57
 2.9417    50
 2.9467    57
 2.9517    47
 2.9567    55
 2.9617    50
 2.9667    44
 2.9717    45
 2.9767    29
 2.9817    41
 2.9867    47
 2.9917    46
 2.9967    47
 3.0017    50
 3.0067    57
 3.0117    54
 3.0167    53
 3.0217    50
 3.0267    58
 3.0317    37
 3.0367    42
 3.0417    43
 3.0467    43
 3.0517    41
 3.0567    36
 3.0617    51
 3.0667    43
 3.0717    56
 3.0767    47
 3.0817    47
 3.0867    38
 3.0917    38
 3.0967    41
 3.1017    41
 3.1067    45
 3.1117    49
 3.1167    43
 3.1217    45
 3.1267    51
 3.1317    49
 3.1367    39
 3.1417    42
 3.1467    44
 3.1517    49
 3.1567    36
 3.1617    29
 3.1666    40
 3.1716    36
 3.1766    46
 3.1816    40
 3.1866    49
 3.1916    51
 3.1966    45
 3.2016    46
 3.2066    49
 3.2116    42
 3.2166    51
 3.2216    48
 3.2266    55
 3.2316    52
 3.2366    48
 3.2416    63
 3.2466    63
 3.2516    71
 3.2566    83
 3.2616    88
 3.2666    94
 3.2716   104
 3.2766   112
 3.2816    95
 3.2866    99
 3.2916   115
 3.2966   116
 3.3016   124
 3.3066   112
 3.3116   117
 3.3166   129
 3.3216   126
 3.3266   118
 3.3316   107
 3.3366   105
 3.3416   110
 3.3466    92
 3.3516   106
 3.3566    75
 3.3616    84
 3.3666    71
 3.3716    69
 3.3766    54
 3.3816    64
 3.3866    71
 3.3916    60
 3.3966    58
 3.4016    56
 3.4066    46
 3.4116    40
 3.4166    54
 3.4216    51
 3.4266    41
 3.4316    40
 3.4366    39
 3.4416    41
 3.4466    33
 3.4516    45
 3.4566    45
 3.4616    49
 3.4666    35
 3.4716    27
 3.4766    34
 3.4816    33
 3.4866    36
 3.4916    39
 3.4966    35
 3.5015    34
 3.5065    31
 3.5115    41
 3.5165    45
 3.5215    43
 3.5265    34
 3.5315    29
 3.5365    47
 3.5415    35
 3.5465    37
 3.5515    52
 3.5565    38
 3.5615    47
 3.5665    42
 3.5715    39
 3.5765    40
 3.5815    47
 3.5865    43
 3.5915    40
 3.5965    41
 3.6015    41
 3.6065    51
 3.6115    69
 3.6165    58
 3.6215    49
 3.6265    39
 3.6315    56
 3.6365    43
 3.6415    57
 3.6465    47
 3.6515    47
 3.6565    49
 3.6615    57
 3.6665    51
 3.6715    52
 3.6765    53
 3.6815    60
 3.6865    36
 3.6915    51
 3.6965    51
 3.7015    46
 3.7065    44
 3.7115    48
 3.7165    48
 3.7215    50
 3.7265    48
 3.7315    49
 3.7365    26
 3.7415    39
 3.7465    39
 3.7515    27
 3.7565    35
 3.7615    32
 3.7665    45
 3.7715    28
 3.7765    36
 3.7815    42
 3.7865    36
 3.7915    32
 3.7965    30
 3.8015    30
 3.8065    35
 3.8115    26
 3.8165    36
 3.8215    32
 3.8265    24
 3.8315    28
 3.8364    28
 3.8414    29
 3.8464    31
 3.8514    26
 3.8564    30
 3.8614    33
 3.8664    36
 3.8714    33
 3.8764    32
 3.8814    31
 3.8864    33
 3.8914    11
 3.8964    38
 3.9014    28
 3.9064    34
 3.9114    42
 3.9164    22
 3.9214    27
 3.9264    38
 3.9314    34
 3.9364    29
 3.9414    38
 3.9464    26
 3.9514    36
 3.9564    40
 3.9614    34
 3.9664    29
 3.9714    24
 3.9764    22
 3.9814    26
 3.9864    34
 3.9914    32
 3.9964    31
 4.0014    28
 4.0064    31
 4.0114    29
 4.0164    32
 4.0214    40
 4.0264    32
 4.0314    28
 4.0364    27
 4.0414    41
 4.0464    28
 4.0514    20
 4.0564    31
 4.0614    27
 4.0664    27
 4.0714    19
 4.0764    22
 4.0814    31
 4.0864    34
 4.0914    32
 4.0964    20
 4.1014    20
 4.1064    28
 4.1114    20
 4.1164    25
 4.1214    29
 4.1264    30
 4.1314    28
 4.1364    26
 4.1414    23
 4.1464    31
 4.1514    29
 4.1564    34
 4.1614    26
 4.1663    25
 4.1713    30
 4.1763    27
 4.1813    26
 4.1863    30
 4.1913    27
 4.1963    24
 4.2013    24
 4.2063    26
 4.2113    25
 4.2163    24
 4.2213    22
 4.2263    25
 4.2313    21
 4.2363    26
 4.2413    29
 4.2463    23
 4.2513    23
 4.2563    25
 4.2613    24
 4.2663    26
 4.2713    23
 4.2763    23
 4.2813    24
 4.2863    29
 4.2913    30
 4.2963    23
 4.3013    25
 4.3063    24
 4.3113    30
 4.3163    31
 4.3213    29
 4.3263    21
 4.3313    24
 4.3363    27
 4.3413    31
 4.3463    24
 4.3513    22
 4.3563    27
 4.3613    27
 4.3663    22
 4.3713    28
 4.3763    27
 4.3813    21
 4.3863    25
 4.3913    27
 4.3963    21
 4.4013    21
 4.4063    14
 4.4113    14
 4.4163    18
 4.4213    21
 4.4263    25
 4.4313    23
 4.4363    26
 4.4413    23
 4.4463    22
 4.4513    26
 4.4563    23
 4.4613    22
 4.4663    23
 4.4713    26
 4.4763    21
 4.4813    25
 4.4863    27
 4.4913    23
 4.4963    23
 4.5012    26
 4.5062    28
 4.5112    28
 4.5162    26
 4.5212    25
 4.5262    26
 4.5312    21
 4.5362    19
 4.5412    20
 4.5462    21
 4.5512    24
 4.5562    28
 4.5612    28
 4.5662    20
 4.5712    19
 4.5762    21
 4.5812    20
 4.5862    22
 4.5912    22
 4.5962    22
 4.6012    21
 4.6062    19
 4.6112    23
 4.6162    23
 4.6212    23
 4.6262    21
 4.6312    17
 4.6362    21
 4.6412    20
 4.6462    19
 4.6512    22
 4.6562    23
 4.6612    20
 4.6662    20
 4.6712    23
 4.6762    20
 4.6812    19
 4.6862    20
 4.6912    25
 4.6962    23
 4.7012    17
 4.7062    14
 4.7112    20
 4.7162    24
 4.7212    26
 4.7262    28
 4.7312    22
 4.7362    19
 4.7412    22
 4.7462    20
 4.7512    21
 4.7562    26
 4.7612    26
 4.7662    24
 4.7712    26
 4.7762    26
 4.7812    20
 4.7862    18
 4.7912    22
 4.7962    21
 4.8012    21
 4.8062    24
 4.8112    20
 4.8162    19
 4.8212    21
 4.8262    17
 4.8312    14
 4.8361    17
 4.8411    21
 4.8461    24
 4.8511    22
 4.8561    22
 4.8611    24
 4.8661    21
 4.8711    19
 4.8761    18
 4.8811    17
 4.8861    18
 4.8911    17
 4.8961    13
 4.9011    11
 4.9061    15
 4.9111    15
 4.9161    15
 4.9211    16
 4.9261    15
 4.9311    23
 4.9361    22
 4.9411    23
 4.9461    23
 4.9511    17
 4.9561    21
 4.9611    23
 4.9661    24
 4.9711    17
 4.9761    15
 4.9811    14
 4.9861    17
 4.9911    21
 4.9961    16
 5.0011    13
 5.0061    23
 5.0111    22
 5.0161    18
 5.0211    19
 5.0261    18
 5.0311    20
 5.0361    25
 5.0411    22
 5.0461    19
 5.0511    17
 5.0561    16
 5.0611    16
 5.0661    17
 5.0711    16
 5.0761    20
 5.0811    23
 5.0861    17
 5.0911    13
 5.0961    17
 5.1011    19
 5.1061    19
 5.1111    23
 5.1161    21
 5.1211    18
 5.1261    23
 5.1311    19
 5.1361    13
 5.1411    20
 5.1461    17
 5.1511    17
 5.1561    18
 5.1611    19
  5.166    29
  5.171    24
  5.176    19
  5.181    17
  5.186    11
  5.191    11
  5.196    21
  5.201    22
  5.206    17
  5.211    14
  5.216    16
  5.221    19
  5.226    14
  5.231    16
  5.236    21
  5.241    17
  5.246    23
  5.251    21
  5.256    16
  5.261    19
  5.266    19
  5.271    17
  5.276    15
  5.281    13
  5.286     9
  5.291    14
  5.296    21
  5.301    16
  5.306    22
  5.311    19
  5.316    18
  5.321    17
  5.326    11
  5.331    14
  5.336    20
  5.341    16
  5.346    12
  5.351    15
  5.356    17
  5.361    16
  5.366    17
  5.371    15
  5.376    12
  5.381    16
  5.386    20
  5.391    17
  5.396    18
  5.401    15
  5.406    12
  5.411    14
  5.416    13
  5.421    15
  5.426    18
  5.431    19
  5.436    17
  5.441    16
  5.446    15
  5.451    14
  5.456    12
  5.461    13
  5.466    14
  5.471    19
  5.476    17
  5.481    18
  5.486    13
  5.491    15
  5.496    17
 5.5009    19
 5.5059    17
 5.5109    15
 5.5159    17
 5.5209    12
 5.5259    17
 5.5309    18
 5.5359    12
 5.5409    14
 5.5459    11
 5.5509    12
 5.5559    19
 5.5609    20
 5.5659     9
 5.5709    14
 5.5759    12
 5.5809    15
 5.5859    16
 5.5909    15
 5.5959    11
 5.6009    11
 5.6059    10
 5.6109     8
 5.6159    11
 5.6209    17
 5.6259    14
 5.6309    14
 5.6359    16
 5.6409    19
 5.6459    16
 5.6509    13
 5.6559    11
 5.6609     9
 5.6659    17
 5.6709    17
 5.6759    15
 5.6809    11
 5.6859    21
 5.6909    14
 5.6959    12
 5.7009    15
 5.7059    19
 5.7109    16
 5.7159    15
 5.7209    14
 5.7259    14
 5.7309     9
 5.7359    18
 5.7409     7
 5.7459    18
 5.7509    11
 5.7559    16
 5.7609    10
 5.7659    19
 5.7709    15
 5.7759     7
 5.7809    11
 5.7859     6
 5.7909    16
 5.7959    15
 5.8009    17
 5.8059    20
 5.8109    12
 5.8159    10
 5.8209    12
 5.8259     8
 5.8309    17
 5.8358    17
 5.8408     6
 5.8458    13
 5.8508    17
 5.8558     6
 5.8608    10
 5.8658    10
 5.8708    13
 5.8758    12
 5.8808    12
 5.8858    14
 5.8908    12
 5.8958    16
 5.9008    10
 5.9058    15
 5.9108    10
 5.9158     9
 5.9208     5
 5.9258    10
 5.9308     9
 5.9358     8
 5.9408    15
 5.9458    17
 5.9508    12
 5.9558    12
 5.9608     7
 5.9658    13
 5.9708    11
 5.9758     8
 5.9808    13
 5.9858    10
 5.9908    10
 5.9958    15
 6.0008    12
 6.0058    15
 6.0108    13
 6.0158    15
 6.0208     8
 6.0258     7
 6.0308    15
 6.0358    16
 6.0408     8
 6.0458    14
 6.0508    19
 6.0558     9
 6.0608    13
 6.0658    13
 6.0708    11
 6.0758    11
 6.0808    12
 6.0858    10
 6.0908    12
 6.0958    13
 6.1008    11
 6.1058     5
 6.1108    13
 6.1158    10
 6.1208    16
 6.1258    13
 6.1308    15
 6.1358    16
 6.1408     9
 6.1458    12
 6.1508    14
 6.1558    11
 6.1608    12
 6.1657     7
 6.1707    11
 6.1757    12
 6.1807    10
 6.1857     9
 6.1907    10
 6.1957    16
 6.2007    12
 6.2057    11
 6.2107     9
 6.2157    11
 6.2207    14
 6.2257     9
 6.2307     8
 6.2357     7
 6.2407    12
 6.2457    13
 6.2507     7
 6.2557    14
 6.2607    14
 6.2657    12
 6.2707    10
 6.2757    12
 6.2807    18
 6.2857     7
 6.2907    16
 6.2957    11
 6.3007    11
 6.3057    16
 6.3107    16
 6.3157     6
 6.3207     8
 6.3257    19
 6.3307     9
 6.3357     9
 6.3407    16
 6.3457    17
 6.3507    17
 6.3557    15
 6.3607    12
 6.3657    16
 6.3707    15
 6.3757    15
 6.3807    12
 6.3857    14
 6.3907    12
 6.3957    18
 6.4007    22
 6.4057    13
 6.4107    13
 6.4157    22
 6.4207    11
 6.4257    21
 6.4307    20
 6.4357    14
 6.4407    26
 6.4457    13
 6.4507    11
 6.4557    12
 6.4607     9
 6.4657    16
 6.4707     7
 6.4757    16
 6.4807     9
 6.4857    15
 6.4907    18
 6.4957    18
 6.5006     6
 6.5056    12
 6.5106     6
 6.5156    11
 6.5206     9
 6.5256    15
 6.5306    16
 6.5356    15
 6.5406    10
 6.5456    13
 6.5506     4
 6.5556    10
 6.5606     6
 6.5656    13
 6.5706    11
 6.5756    13
 6.5806     9
 6.5856     9
 6.5906     7
 6.5956     7
 6.6006    10
 6.6056     4
 6.6106    15
 6.6156     5
 6.6206     4
 6.6256     7
 6.6306     6
 6.6356     9
 6.6406     5
 6.6456     7
 6.6506     6
 6.6556     8
 6.6606     7
 6.6656    10
 6.6706     8
 6.6756     4
 6.6806     7
 6.6856     5
 6.6906     9
 6.6956     7
 6.7006     4
 6.7056     8
 6.7106     7
 6.7156    15
 6.7206     8
 6.7256     6
 6.7306     8
 6.7356    12
 6.7406    10
 6.7456    12
 6.7506     8
 6.7556     5
 6.7606     7
 6.7656    11
 6.7706     7
 6.7756     7
 6.7806     6
 6.7856     4
 6.7906     6
 6.7956    12
 6.8006     4
 6.8056     8
 6.8106     6
 6.8156     9
 6.8206     6
 6.8256     8
 6.8306     8
 6.8355     5
 6.8405     5
 6.8455     8
 6.8505     9
 6.8555    10
 6.8605     3
 6.8655     4
 6.8705    10
 6.8755     1
 6.8805     9
 6.8855     4
 6.8905     9
 6.8955    14
 6.9005     5
 6.9055     8
 6.9105     8
 6.9155     2
 6.9205     9
 6.9255     5
 6.9305     3
 6.9355     9
 6.9405    11
 6.9455     6
 6.9505     9
 6.9555     6
 6.9605     7
 6.9655     7
 6.9705    10
 6.9755     5
 6.9805    10
 6.9855     8
 6.9905     7
 6.9955     9
 7.0005     4
 7.0055     7
 7.0105     5
 7.0155    14
 7.0205     7
 7.0255    13
 7.0305     8
 7.0355     6
 7.0405     5
 7.0455     5
 7.0505     7
 7.0555     3
 7.0605     8
 7.0655     4
 7.0705     9
 7.0755     4
 7.0805    11
 7.0855     6
 7.0905     8
 7.0955     6
 7.1005     7
 7.1055     3
 7.1105     4
 7.1155     9
 7.1205     6
 7.1255     7
 7.1305    10
 7.1355     7
 7.1405     9
 7.1455     7
 7.1505     2
 7.1555     4
 7.1605     7
 7.1654     5
 7.1704     4
 7.1754     7
 7.1804     5
 7.1854     6
 7.1904     7
 7.1954     2
 7.2004     6
 7.2054     9
 7.2104     5
 7.2154     7
 7.2204     8
 7.2254     7
 7.2304     5
 7.2354     3
 7.2404     5
 7.2454     6
 7.2504     3
 7.2554     5
 7.2604     7
 7.2654     9
 7.2704     8
 7.2754     8
 7.2804     5
 7.2854     2
 7.2904     8
 7.2954     5
 7.3004     5
 7.3054     6
 7.3104     7
 7.3154     5
 7.3204     4
 7.3254     2
 7.3304     4
 7.3354     4
 7.3404     6
 7.3454     6
 7.3504     6
 7.3554     6
 7.3604     4
 7.3654     6
 7.3704     3
 7.3754     7
 7.3804     7
 7.3854     1
 7.3904     5
 7.3954     1
 7.4004     4
 7.4054     5
 7.4104     7
 7.4154     6
 7.4204     6
 7.4254     7
 7.4304     7
 7.4354     4
 7.4404     3
 7.4454     3
 7.4504     6
 7.4554     4
 7.4604     5
 7.4654     4
 7.4704     7
 7.4754     6
 7.4804     5
 7.4854     5
 7.4904     1
 7.4954     6
 7.5003     4
 7.5053     9
 7.5103     9
 7.5153     8
 7.5203     4
 7.5253     5
 7.5303     4
 7.5353     2
 7.5403     4
 7.5453     0
 7.5503     3
 7.5553     3
 7.5603     6
 7.5653     6
 7.5703     2
 7.5753     2
 7.5803     4
 7.5853     4
 7.5903     2
 7.5953     1
 7.6003     4
 7.6053     2
 7.6103     3
 7.6153     5
 7.6203     2
 7.6253     4
 7.6303     5
 7.6353     4
 7.6403     5
 7.6453     6
 7.6503     3
 7.6553     0
 7.6603     6
 7.6653     6
 7.6703     5
 7.6753     1
 7.6803     6
 7.6853     3
 7.6903     3
 7.6953     2
 7.7003     6
 7.7053     8
 7.7103     4
 7.7153     3
 7.7203     5
 7.7253     2
 7.7303     1
 7.7353     1
 7.7403     4
 7.7453     3
 7.7503     5
 7.7553     4
 7.7603     6
 7.7653     3
 7.7703     2
 7.7753     5
 7.7803     8
 7.7853     4
 7.7903     4
 7.7953     6
 7.8003     2
 7.8053     7
 7.8103     5
 7.8153     2
 7.8203     4
 7.8253     4
 7.8303     5
 7.8352     0
 7.8402     5
 7.8452     2
 7.8502     4
 7.8552     1
 7.8602     4
 7.8652     6
 7.8702     3
 7.8752     3
 7.8802     2
 7.8852     2
 7.8902     2
 7.8952     3
 7.9002     3
 7.9052     4
 7.9102     3
 7.9152     1
 7.9202     3
 7.9252     3
 7.9302     2
 7.9352     5
 7.9402     0
 7.9452     2
 7.9502     1
 7.9552     1
 7.9602     4
 7.9652     1
 7.9702     5
 7.9752     2
 7.9802     7
 7.9852     1
 7.9902     4
 7.9952     4
 8.0002     5
 8.0052     1
 8.0102     0
 8.0152     4
 8.0202     3
 8.0252     1
 8.0302     2
 8.0352     2
 8.0402     3
 8.0452     4
 8.0502     5
 8.0552     1
 8.0602     0
 8.0652     3
 8.0702     2
 8.0752     2
 8.0802     1
 8.0852     4
 8.0902     4
 8.0952     2
 8.1002     0
 8.1052     2
 8.1102     2
 8.1152     1
 8.1202     3
 8.1252     2
 8.1302     3
 8.1352     5
 8.1402     5
 8.1452     1
 8.1502     1
 8.1552     1
 8.1602     2
 8.1651     3
 8.1701     1
 8.1751     1
 8.1801     3
 8.1851     2
 8.1901     2
 8.1951     1
 8.2001     3
 8.2051     2
 8.2101     0
 8.2151     0
 8.2201     0
 8.2251     1
 8.2301     8
 8.2351     2
 8.2401     1
 8.2451     1
 8.2501     2
 8.2551     0
 8.2601     2
 8.2651     0
 8.2701     1
 8.2751     3
 8.2801     2
 8.2851     0
 8.2901     1
 8.2951     1
 8.3001     0
 8.3051     2
 8.3101     2
 8.3151     1
 8.3201     2
 8.3251     2
 8.3301     1
 8.3351     2
 8.3401     0
 8.3451     0
 8.3501     2
 8.3551     2
 8.3601     1
 8.3651     0
 8.3701     2
 8.3751     1
 8.3801     1
 8.3851     0
 8.3901     1
 8.3951     4
 8.4001     0
 8.4051     1
 8.4101     0
 8.4151     0
 8.4201     1
 8.4251     3
 8.4301     2
 8.4351     3
 8.4401     4
 8.4451     0
 8.4501     3
 8.4551     0
 8.4601     1
 8.4651     0
 8.4701     0
 8.4751     0
 8.4801     2
 8.4851     1
 8.4901     1
 8.4951     0
    8.5     2
  8.505     2
   8.51     0
  8.515     0
   8.52     2
  8.525     1
   8.53     2
  8.535     2
   8.54     5
  8.545     0
   8.55     1
  8.555     0
   8.56     0
  8.565     2
   8.57     0
  8.575     0
   8.58     2
  8.585     1
   8.59     0
  8.595     0
    8.6     1
  8.605     0
   8.61     0
  8.615     2
   8.62     3
  8.625     0
   8.63     1
  8.635     0
   8.64     1
  8.645     2
   8.65     0
  8.655     0
   8.66     1
  8.665     0
   8.67     1
  8.675     0
   8.68     1
  8.685     0
   8.69     0
  8.695     1
    8.7     0
  8.705     1
   8.71     0
  8.715     0
   8.72     2
  8.725     0
   8.73     1
  8.735     0
   8.74     0
  8.745     0
   8.75     0
  8.755     0
   8.76     0
  8.765     0
   8.77     1
  8.775     0
   8.78     1
  8.785     0
   8.79     1
  8.795     1
    8.8     1
  8.805     0
   8.81     0
  8.815     0
   8.82     1
  8.825     1
   8.83     0
 8.8349     0
 8.8399     3
 8.8449     0
 8.8499     1
 8.8549     0
 8.8599     1
 8.8649     0
 8.8699     0
 8.8749     0
 8.8799     0
 8.8849     0
 8.8899     0
 8.8949     0
 8.8999     0
 8.9049     1
 8.9099     0
 8.9149     1
 8.9199     0
 8.9249     0
 8.9299     1
 8.9349     0
 8.9399     0
 8.9449     0
 8.9499     0
 8.9549     0
 8.9599     1
 8.9649     0
 8.9699     0
 8.9749     0
 8.9799     1
 8.9849     0
 8.9899     0
 8.9949     0
 8.9999     0
 9.0049     0
 9.0099     0
 9.0149     0
 9.0199     0
 9.0249     0
 9.0299     0
 9.0349     0
 9.0399     0
 9.0449     0
 9.0499     0
 9.0549     0
 9.0599     1
 9.0649     0
 9.0699     0
 9.0749     0
 9.0799     0
 9.0849     0
 9.0899     0
 9.0949     0
 9.0999     0
 9.1049     0
 9.1099     0
 9.1149     0
 9.1199     0
 9.1249     0
 9.1299     0
 9.1349     0
 9.1399     0
 9.1449     0
 9.1499     0
 9.1549     1
 9.1599     1
 9.1648     0
 9.1698     0
 9.1748     0
 9.1798     0
 9.1848     0
 9.1898     0
 9.1948     0
 9.1998     0
 9.2048     0
 9.2098     0
 9.2148     0
 9.2198     0
 9.2248     0
 9.2298     0
 9.2348     0
 9.2398     0
 9.2448     0
 9.2498     0
 9.2548     1
 9.2598     0
 9.2648     0
 9.2698     0
 9.2748     0
 9.2798     0
 9.2848     0
 9.2898     0
 9.2948     0
 9.2998     0
 9.3048     0
 9.3098     0
 9.3148     0
 9.3198     0
 9.3248     0
 9.3298     1
 9.3348     0
 9.3398     0
 9.3448     0
 9.3498     0
 9.3548     0
 9.3598     0
 9.3648     0
 9.3698     0
 9.3748     0
 9.3798     0
 9.3848     0
 9.3898     0
 9.3948     0
 9.3998     0
 9.4048     0
 9.4098     0
 9.4148     0
 9.4198     0
 9.4248     0
 9.4298     0
 9.4348     0
 9.4398     0
 9.4448     0
 9.4498     0
 9.4548     0
 9.4598     0
 9.4648     0
 9.4698     0
 9.4748     0
 9.4798     0
 9.4848     0
 9.4898     0
 9.4948     0
 9.4997     0
 9.5047     0
 9.5097     0
 9.5147     0
 9.5197     0
 9.5247     0
 9.5297     0
 9.5347     0
 9.5397     0
 9.5447     0
 9.5497     0
 9.5547     0
 9.5597     0
 9.5647     0
 9.5697     0
 9.5747     1
 9.5797     0
 9.5847     0
 9.5897     0
 9.5947     0
 9.5997     0
 9.6047     0
 9.6097     0
 9.6147     0
 9.6197     0
 9.6247     0
 9.6297     0
 9.6347     0
 9.6397     0
 9.6447     0
 9.6497     0
 9.6547     0
 9.6597     0
 9.6647     0
 9.6697     0
 9.6747     0
 9.6797     0
 9.6847     0
 9.6897     0
 9.6947     0
 9.6997     0
 9.7047     0
 9.7097     0
 9.7147     0
 9.7197     0
 9.7247     0
 9.7297     0
 9.7347     0
 9.7397     0
 9.7447     0
 9.7497     0
 9.7547     0
 9.7597     0
 9.7647     0
 9.7697     0
 9.7747     0
 9.7797     0
 9.7847     0
 9.7897     0
 9.7947     0
 9.7997     0
 9.8047     0
 9.8097     0
 9.8147     0
 9.8197     0
 9.8247     0
 9.8297     0
 9.8346     0
 9.8396     0
 9.8446     0
 9.8496     0
 9.8546     0
 9.8596     0
 9.8646     0
 9.8696     0
 9.8746     0
 9.8796     0
 9.8846     0
 9.8896     0
 9.8946     0
 9.8996     0
 9.9046     0
 9.9096     0
 9.9146     0
 9.9196     0
 9.9246     0
 9.9296     0
 9.9346     0
 9.9396     0
 9.9446     0
 9.9496     0
 9.9546     0
 9.9596     0
 9.9646     0
 9.9696     0
 9.9746     0
 9.9796     0
 9.9846     0
 9.9896     0
 9.9946     0
 9.9996     0
10.0046     0
10.0096     0
10.0146     0
10.0196     0
10.0246     0
10.0296     0
10.0346     0
10.0396     0
10.0446     0
10.0496     0
10.0546     0
10.0596     0
10.0646     0
10.0696     0
10.0746     0
10.0796     0
10.0846     0
10.0896     0
10.0946     0
10.0996     0
10.1046     0
10.1096     0
10.1146     0
10.1196     0
10.1246     0
10.1296     0
10.1346     0
10.1396     0
10.1446     0
10.1496     0
10.1546     0
10.1596     0
10.1645     0
10.1695     0
10.1745     0
10.1795     0
10.1845     0
10.1895     0
10.1945     0
10.1995     0
10.2045     0
10.2095     0
10.2145     0
10.2195     0
10.2245     0
10.2295     0
10.2345     0
10.2395     0
10.2445     0
10.2495     0
10.2545     0
10.2595     0
10.2645     0
10.2695     0
10.2745     0
10.2795     0
10.2845     0
10.2895     0
10.2945     0
10.2995     0
10.3045     0
10.3095     0
10.3145     0
10.3195     0
10.3245     0
10.3295     0
10.3345     0
10.3395     0
10.3445     0
10.3495     0
10.3545     0
10.3595     0
10.3645     0
10.3695     0
10.3745     0
10.3795     0
10.3845     0
10.3895     0
10.3945     0
10.3995     0
10.4045     0
10.4095     0
10.4145     0
10.4195     0
10.4245     0
10.4295     0
10.4345     0
10.4395     0
10.4445     0
10.4495     0
10.4545     0
10.4595     0
10.4645     0
10.4695     0
10.4745     0
10.4795     0
10.4845     0
10.4895     0
10.4945     0
10.4994     0
10.5044     0
10.5094     0
10.5144     0
10.5194     0
10.5244     0
10.5294     0
10.5344     0
10.5394     0
10.5444     0
10.5494     0
10.5544     0
10.5594     0
10.5644     0
10.5694     0
10.5744     0
10.5794     0
10.5844     0
10.5894     0
10.5944     0
10.5994     0
10.6044     0
10.6094     0
10.6144     0
10.6194     0
10.6244     0
10.6294     0
10.6344     0
10.6394     0
10.6444     0
10.6494     0
10.6544     0
10.6594     0
10.6644     0
10.6694     0
10.6744     0
10.6794     0
10.6844     0
10.6894     0
10.6944     0
10.6994     0
10.7044     0
10.7094     0
10.7144     0
10.7194     0
10.7244     0
10.7294     0
10.7344     0
10.7394     0
10.7444     0
10.7494     0
10.7544     0
10.7594     0
10.7644     0
10.7694     0
10.7744     0
10.7794     0
10.7844     0
10.7894     0
10.7944     0
10.7994     0
10.8044     0
10.8094     0
10.8144     0
10.8194     0
10.8244     0
10.8294     0
10.8343     0
10.8393     0
10.8443     0
10.8493     0
10.8543     0
10.8593     0
10.8643     0
10.8693     0
10.8743     0
10.8793     0
10.8843     0
10.8893     0
10.8943     0
10.8993     0
10.9043     0
10.9093     0
10.9143     0
10.9193     0
10.9243     0
10.9293     0
10.9343     0
10.9393     0
10.9443     0
10.9493     0
10.9543     0
10.9593     0
10.9643     0
10.9693     0
10.9743     0
10.9793     0
10.9843     0
10.9893     0
10.9943     0
10.9993     0
11.0043     0
11.0093     0
11.0143     0
11.0193     0
11.0243     0
11.0293     0
11.0343     0
11.0393     0
11.0443     0
11.0493     0
11.0543     0
11.0593     0
11.0643     0
11.0693     0
11.0743     0
11.0793     0
11.0843     0
11.0893     0
11.0943     0
11.0993     0
11.1043     0
11.1093     0
11.1143     0
11.1193     0
11.1243     0
11.1293     0
11.1343     0
11.1393     0
11.1443     0
11.1493     0
11.1543     0
11.1593     0
11.1642     0
11.1692     0
11.1742     0
11.1792     0
11.1842     0
11.1892     0
11.1942     0
11.1992     0
11.2042     0
11.2092     0
11.2142     0
11.2192     0
11.2242     0
11.2292     0
11.2342     0
11.2392     0
11.2442     0
11.2492     0
11.2542     0
11.2592     0
11.2642     0
11.2692     0
11.2742     0
11.2792     0
11.2842     0
11.2892     0
11.2942     0
11.2992     0
11.3042     0
11.3092     0
11.3142     0
11.3192     0
11.3242     0
11.3292     0
11.3342     0
11.3392     0
11.3442     0
11.3492     0
11.3542     0
11.3592     0
11.3642     0
11.3692     0
11.3742     0
11.3792     0
11.3842     0
11.3892     0
11.3942     0
11.3992     0
11.4042     0
11.4092     0
11.4142     0
11.4192     0
11.4242     0
11.4292     0
11.4342     0
11.4392     0
11.4442     0
11.4492     0
11.4542     0
11.4592     0
11.4642     0
11.4692     0
11.4742     0
11.4792     0
11.4842     0
11.4892     0
11.4942     0
11.4991     0
11.5041     0
11.5091     0
11.5141     0
11.5191     0
11.5241     0
11.5291     0
11.5341     0
11.5391     0
11.5441     0
11.5491     0
11.5541     0
11.5591     0
11.5641     0
11.5691     0
11.5741     0
11.5791     0
11.5841     0
11.5891     0
11.5941     0
11.5991     0
11.6041     0
11.6091     0
11.6141     0
11.6191     0
11.6241     0
11.6291     0
11.6341     0
11.6391     0
11.6441     0
11.6491     0
11.6541     0
11.6591     0
11.6641     0
11.6691     0
11.6741     0
11.6791     0
11.6841     0
11.6891     0
11.6941     0
11.6991     0
11.7041     0
11.7091     0
11.7141     0
11.7191     0
11.7241     0
11.7291     0
11.7341     0
11.7391     0
11.7441     0
11.7491     0
11.7541     0
11.7591     0
11.7641     0
11.7691     0
11.7741     0
11.7791     0
11.7841     0
11.7891     0
11.7941     0
11.7991     0
11.8041     0
11.8091     0
11.8141     0
11.8191     0
11.8241     0
11.8291     0
 11.834     0
 11.839     0
 11.844     0
 11.849     0
 11.854     0
 11.859     0
 11.864     0
 11.869     0
 11.874     0
 11.879     0
 11.884     0
 11.889     0
 11.894     0
 11.899     0
 11.904     0
 11.909     0
 11.914     0
 11.919     0
 11.924     0
 11.929     0
 11.934     0
 11.939     0
 11.944     0
 11.949     0
 11.954     0
 11.959     0
 11.964     0
 11.969     0
 11.974     0
 11.979     0
 11.984     0
 11.989     0
 11.994     0
 11.999     0
 12.004     0
 12.009     0
 12.014     0
 12.019     0
 12.024     0
 12.029     0
 12.034     0
 12.039     0
 12.044     0
 12.049     0
 12.054     0
 12.059     0
 12.064     0
 12.069     0
 12.074     0
 12.079     0
 12.084     0
 12.089     0
 12.094     0
 12.099     0
 12.104     0
 12.109     0
 12.114     0
 12.119     0
 12.124     0
 12.129     0
 12.134     0
 12.139     0
 12.144     0
 12.149     0
 12.154     0
 12.159     0
12.1639     0
12.1689     0
12.1739     0
12.1789     0
12.1839     0
12.1889     0
12.1939     0
12.1989     0
12.2039     0
12.2089     0
12.2139     0
12.2189     0
12.2239     0
12.2289     0
12.2339     0
12.2389     0
12.2439     0
12.2489     0
12.2539     0
12.2589     0
12.2639     0
12.2689     0
12.2739     0
12.2789     0
12.2839     0
12.2889     0
12.2939     0
12.2989     0
12.3039     0
12.3089     0
12.3139     0
12.3189     0
12.3239     0
12.3289     0
12.3339     0
12.3389     0
12.3439     0
12.3489     0
12.3539     0
12.3589     0
12.3639     0
12.3689     0
12.3739     0
12.3789     0
12.3839     0
12.3889     0
12.3939     0
12.3989     0
12.4039     0
12.4089     0
12.4139     0
12.4189     0
12.4239     0
12.4289     0
12.4339     0
12.4389     0
12.4439     0
12.4489     0
12.4539     0
12.4589     0
12.4639     0
12.4689     0
12.4739     0
12.4789     0
12.4839     0
12.4889     0
12.4939     0
12.4988     0
12.5038     0
12.5088     0
12.5138     0
12.5188     0
12.5238     0
12.5288     0
12.5338     0
12.5388     0
12.5438     0
12.5488     0
12.5538     0
12.5588     0
12.5638     0
12.5688     0
12.5738     0
12.5788     0
12.5838     0
12.5888     0
12.5938     0
12.5988     0
12.6038     0
12.6088     0
12.6138     0
12.6188     0
12.6238     0
12.6288     0
12.6338     0
12.6388     0
12.6438     0
12.6488     0
12.6538     0
12.6588     0
12.6638     0
12.6688     0
12.6738     0
12.6788     0
12.6838     0
12.6888     0
12.6938     0
12.6988     0
