Bruker Nano GmbH Berlin, Germany
Esprit 2.x

Date: 8/21/2023 3:55:03 PM
Real time: 76174
Life time: 76174
Pulse density: 5954

Primary energy: 10
Beam current: -1
Take off angle: 35
Tilt angle: 0
Azimut angle: 45

Detector type: Custom type
Window type: slew AP3.3
Detector thickness: 0.45
Si dead layer:0

Calibration, lin.: 4.998
Calibration, abs.: -477.257
Mn FWHM: 124.4
Fano factor: 0.109
Channels: 2085

Energy Counts
-0.4773     0
-0.4723     0
-0.4673     0
-0.4623     0
-0.4573     0
-0.4523     0
-0.4473     0
-0.4423     0
-0.4373     0
-0.4323     0
-0.4273     0
-0.4223     0
-0.4173     0
-0.4123     0
-0.4073     0
-0.4023     0
-0.3973     0
-0.3923     0
-0.3873     0
-0.3823     0
-0.3773     0
-0.3723     0
-0.3673     0
-0.3623     0
-0.3573     0
-0.3523     0
-0.3473     0
-0.3423     0
-0.3373     0
-0.3323     0
-0.3273     0
-0.3223     0
-0.3173     0
-0.3123     0
-0.3073     0
-0.3023     0
-0.2973     0
-0.2923     0
-0.2873     0
-0.2823     0
-0.2773     0
-0.2723     0
-0.2673     0
-0.2623     0
-0.2573     0
-0.2523     0
-0.2473     0
-0.2423     0
-0.2373     0
-0.2323     0
-0.2273     0
-0.2223     0
-0.2173     0
-0.2123     0
-0.2073     0
-0.2023     0
-0.1973     0
-0.1923     0
-0.1873     0
-0.1823     0
-0.1773     0
-0.1723     0
-0.1673     0
-0.1624     0
-0.1574     0
-0.1524     0
-0.1474     0
-0.1424     0
-0.1374     0
-0.1324     0
-0.1274     0
-0.1224     0
-0.1174     0
-0.1124     0
-0.1074     0
-0.1024     0
-0.0974     0
-0.0924     0
-0.0874     0
-0.0824     0
-0.0774     1
-0.0724     0
-0.0674     4
-0.0624    13
-0.0574    43
-0.0524   110
-0.0474   234
-0.0424   534
-0.0374  1039
-0.0324  1821
-0.0274  2927
-0.0224  4275
-0.0174  6028
-0.0124  7750
-0.0074  9277
-0.0024  9787
 0.0026 10000
 0.0076  9148
 0.0126  7811
 0.0176  6022
 0.0226  4379
 0.0276  2861
 0.0326  1823
 0.0376   983
 0.0426   495
 0.0476   254
 0.0526   101
 0.0576    56
 0.0626    18
 0.0676     8
 0.0726     2
 0.0776     0
 0.0826     0
 0.0876     3
 0.0926     0
 0.0976     0
 0.1026     1
 0.1076     0
 0.1126     0
 0.1176     0
 0.1226    10
 0.1276    84
 0.1326   150
 0.1376   129
 0.1426   107
 0.1476    96
 0.1526    92
 0.1576    80
 0.1626    87
 0.1675   102
 0.1725   100
 0.1775    91
 0.1825    84
 0.1875    87
 0.1925    90
 0.1975    92
 0.2025    95
 0.2075   100
 0.2125   110
 0.2175   137
 0.2225   181
 0.2275   208
 0.2325   238
 0.2375   295
 0.2425   383
 0.2475   472
 0.2525   582
 0.2575   695
 0.2625   781
 0.2675   872
 0.2725   943
 0.2775   950
 0.2825   901
 0.2875   821
 0.2925   722
 0.2975   605
 0.3025   486
 0.3075   386
 0.3125   302
 0.3175   225
 0.3225   182
 0.3275   144
 0.3325   104
 0.3375   102
 0.3425   112
 0.3475   109
 0.3525   115
 0.3575   124
 0.3625   140
 0.3675   146
 0.3725   166
 0.3775   174
 0.3825   187
 0.3875   190
 0.3925   193
 0.3975   208
 0.4025   202
 0.4075   211
 0.4125   227
 0.4175   207
 0.4225   234
 0.4275   289
 0.4325   297
 0.4375   329
 0.4425   395
 0.4475   448
 0.4525   554
 0.4575   735
 0.4625   951
 0.4675  1249
 0.4725  1672
 0.4775  2320
 0.4825  3159
 0.4875  4243
 0.4925  5493
 0.4975  6952
 0.5024  8422
 0.5074  9971
 0.5124 11362
 0.5174 12328
 0.5224 13050
 0.5274 12763
 0.5324 12392
 0.5374 11250
 0.5424  9939
 0.5474  8390
 0.5524  6628
 0.5574  5246
 0.5624  3725
 0.5674  2653
 0.5724  1875
 0.5774  1270
 0.5824   814
 0.5874   635
 0.5924   467
 0.5974   342
 0.6024   271
 0.6074   270
 0.6124   268
 0.6174   262
 0.6224   268
 0.6274   233
 0.6324   239
 0.6374   269
 0.6424   268
 0.6474   252
 0.6524   249
 0.6574   258
 0.6624   252
 0.6674   315
 0.6724   327
 0.6774   397
 0.6824   424
 0.6874   468
 0.6924   592
 0.6974   603
 0.7024   685
 0.7074   683
 0.7124   652
 0.7174   666
 0.7224   659
 0.7274   573
 0.7324   535
 0.7374   457
 0.7424   421
 0.7474   323
 0.7524   307
 0.7574   240
 0.7624   232
 0.7674   223
 0.7724   200
 0.7774   191
 0.7824   183
 0.7874   145
 0.7924   156
 0.7974   165
 0.8024   168
 0.8074   172
 0.8124   176
 0.8174   149
 0.8224   144
 0.8274   152
 0.8324   171
 0.8373   164
 0.8423   147
 0.8473   155
 0.8523   164
 0.8573   174
 0.8623   181
 0.8673   182
 0.8723   168
 0.8773   170
 0.8823   179
 0.8873   184
 0.8923   184
 0.8973   164
 0.9023   172
 0.9073   174
 0.9123   171
 0.9173   192
 0.9223   198
 0.9273   179
 0.9323   171
 0.9373   192
 0.9423   198
 0.9473   175
 0.9523   195
 0.9573   213
 0.9623   184
 0.9673   207
 0.9723   231
 0.9773   257
 0.9823   265
 0.9873   332
 0.9923   372
 0.9973   455
 1.0023   510
 1.0073   577
 1.0123   691
 1.0173   793
 1.0223   914
 1.0273   894
 1.0323  1113
 1.0373  1097
 1.0423  1101
 1.0473  1178
 1.0523  1121
 1.0573  1025
 1.0623   946
 1.0673   900
 1.0723   732
 1.0773   698
 1.0823   590
 1.0873   488
 1.0923   395
 1.0973   349
 1.1023   293
 1.1073   270
 1.1123   237
 1.1173   220
 1.1223   200
 1.1273   202
 1.1323   208
 1.1373   198
 1.1423   196
 1.1473   184
 1.1523   168
 1.1573   157
 1.1623   176
 1.1672   196
 1.1722   179
 1.1772   186
 1.1822   186
 1.1872   199
 1.1922   221
 1.1972   192
 1.2022   211
 1.2072   188
 1.2122   223
 1.2172   241
 1.2222   265
 1.2272   246
 1.2322   260
 1.2372   307
 1.2422   305
 1.2472   306
 1.2522   321
 1.2572   322
 1.2622   314
 1.2672   343
 1.2722   299
 1.2772   277
 1.2822   281
 1.2872   279
 1.2922   269
 1.2972   254
 1.3022   266
 1.3072   237
 1.3122   217
 1.3172   201
 1.3222   201
 1.3272   171
 1.3322   199
 1.3372   195
 1.3422   197
 1.3472   184
 1.3522   205
 1.3572   186
 1.3622   197
 1.3672   193
 1.3722   191
 1.3772   182
 1.3822   190
 1.3872   200
 1.3922   191
 1.3972   191
 1.4022   232
 1.4072   221
 1.4122   252
 1.4172   275
 1.4222   324
 1.4272   365
 1.4322   469
 1.4372   572
 1.4422   683
 1.4472   742
 1.4522   893
 1.4572  1063
 1.4622  1301
 1.4672  1373
 1.4722  1517
 1.4772  1622
 1.4822  1715
 1.4872  1721
 1.4922  1727
 1.4972  1685
 1.5021  1691
 1.5071  1617
 1.5121  1450
 1.5171  1273
 1.5221  1099
 1.5271  1021
 1.5321   875
 1.5371   721
 1.5421   639
 1.5471   538
 1.5521   418
 1.5571   379
 1.5621   319
 1.5671   314
 1.5721   271
 1.5771   231
 1.5821   246
 1.5871   241
 1.5921   227
 1.5971   201
 1.6021   190
 1.6071   206
 1.6121   192
 1.6171   189
 1.6221   190
 1.6271   183
 1.6321   209
 1.6371   206
 1.6421   223
 1.6471   279
 1.6521   344
 1.6571   422
 1.6621   524
 1.6671   659
 1.6721   844
 1.6771  1079
 1.6821  1426
 1.6871  1807
 1.6921  2308
 1.6971  2854
 1.7021  3464
 1.7071  4033
 1.7121  4691
 1.7171  5353
 1.7221  6023
 1.7271  6470
 1.7321  6853
 1.7371  7188
 1.7421  7343
 1.7471  7289
 1.7521  7044
 1.7571  6705
 1.7621  6159
 1.7671  5548
 1.7721  4987
 1.7771  4335
 1.7821  3618
 1.7871  3013
 1.7921  2458
 1.7971  2042
 1.8021  1715
 1.8071  1406
 1.8121  1108
 1.8171   890
 1.8221   782
 1.8271   666
 1.8321   590
  1.837   546
  1.842   481
  1.847   414
  1.852   384
  1.857   349
  1.862   303
  1.867   283
  1.872   278
  1.877   255
  1.882   233
  1.887   213
  1.892   196
  1.897   167
  1.902   148
  1.907   141
  1.912   143
  1.917   137
  1.922   135
  1.927   131
  1.932   113
  1.937   120
  1.942   128
  1.947   119
  1.952   122
  1.957   127
  1.962   133
  1.967   140
  1.972   141
  1.977   159
  1.982   172
  1.987   171
  1.992   180
  1.997   195
  2.002   204
  2.007   204
  2.012   214
  2.017   198
  2.022   182
  2.027   185
  2.032   172
  2.037   172
  2.042   169
  2.047   176
  2.052   170
  2.057   155
  2.062   146
  2.067   154
  2.072   144
  2.077   131
  2.082   135
  2.087   123
  2.092   109
  2.097   119
  2.102   114
  2.107   105
  2.112   117
  2.117   119
  2.122   117
  2.127   109
  2.132   109
  2.137   114
  2.142   114
  2.147   105
  2.152   103
  2.157   118
  2.162   121
 2.1669   107
 2.1719    97
 2.1769    99
 2.1819   116
 2.1869   112
 2.1919   112
 2.1969   106
 2.2019    99
 2.2069   105
 2.2119   106
 2.2169    98
 2.2219   113
 2.2269   116
 2.2319   122
 2.2369   124
 2.2419   115
 2.2469   103
 2.2519   104
 2.2569   113
 2.2619   112
 2.2669   114
 2.2719   113
 2.2769   103
 2.2819    87
 2.2869   105
 2.2919   110
 2.2969   111
 2.3019   101
 2.3069   105
 2.3119   123
 2.3169   121
 2.3219   114
 2.3269   106
 2.3319   109
 2.3369   114
 2.3419   119
 2.3469   121
 2.3519   117
 2.3569   105
 2.3619   114
 2.3669   127
 2.3719   113
 2.3769   119
 2.3819   117
 2.3869   110
 2.3919   112
 2.3969    98
 2.4019   113
 2.4069   128
 2.4119   108
 2.4169    94
 2.4219   103
 2.4269   122
 2.4319   116
 2.4369   106
 2.4419   108
 2.4469   110
 2.4519   109
 2.4569    96
 2.4619    95
 2.4669    95
 2.4719    97
 2.4769   114
 2.4819    97
 2.4869    98
 2.4919    99
 2.4969   113
 2.5018    90
 2.5068    87
 2.5118    92
 2.5168    95
 2.5218    83
 2.5268    89
 2.5318    92
 2.5368    92
 2.5418    99
 2.5468    93
 2.5518    82
 2.5568    98
 2.5618    90
 2.5668    95
 2.5718   102
 2.5768   102
 2.5818   100
 2.5868   106
 2.5918   105
 2.5968    98
 2.6018   108
 2.6068    97
 2.6118   113
 2.6168   108
 2.6218   108
 2.6268    96
 2.6318    97
 2.6368   102
 2.6418   116
 2.6468   108
 2.6518   108
 2.6568   130
 2.6618   117
 2.6668   113
 2.6718    92
 2.6768   105
 2.6818    81
 2.6868    87
 2.6918   100
 2.6968    84
 2.7018    99
 2.7068    84
 2.7118    75
 2.7168    93
 2.7218    96
 2.7268    93
 2.7318    81
 2.7368    80
 2.7418    72
 2.7468    75
 2.7518    89
 2.7568    96
 2.7618    71
 2.7668    97
 2.7718    84
 2.7768    80
 2.7818    79
 2.7868    79
 2.7918    80
 2.7968    71
 2.8018    70
 2.8068    93
 2.8118    67
 2.8168    71
 2.8218    91
 2.8268    86
 2.8318    76
 2.8367    80
 2.8417    84
 2.8467    74
 2.8517    79
 2.8567    77
 2.8617    82
 2.8667    73
 2.8717    90
 2.8767    89
 2.8817    87
 2.8867    76
 2.8917    76
 2.8967    91
 2.9017    73
 2.9067    64
 2.9117    60
 2.9167    72
 2.9217    80
 2.9267    78
 2.9317    93
 2.9367    78
 2.9417    80
 2.9467    80
 2.9517    66
 2.9567    83
 2.9617    73
 2.9667    67
 2.9717    84
 2.9767    79
 2.9817    65
 2.9867    81
 2.9917    79
 2.9967    79
 3.0017    84
 3.0067    73
 3.0117    68
 3.0167    86
 3.0217    78
 3.0267    68
 3.0317    73
 3.0367    77
 3.0417    70
 3.0467    76
 3.0517    72
 3.0567    71
 3.0617    68
 3.0667    78
 3.0717    70
 3.0767    64
 3.0817    66
 3.0867    77
 3.0917    69
 3.0967    72
 3.1017    73
 3.1067    68
 3.1117    75
 3.1167    76
 3.1217    64
 3.1267    62
 3.1317    64
 3.1367    70
 3.1417    70
 3.1467    67
 3.1517    87
 3.1567    71
 3.1617    83
 3.1666    70
 3.1716    60
 3.1766    69
 3.1816    89
 3.1866    71
 3.1916    74
 3.1966    61
 3.2016    74
 3.2066    81
 3.2116    76
 3.2166    70
 3.2216    80
 3.2266    89
 3.2316    78
 3.2366    76
 3.2416    76
 3.2466    80
 3.2516    96
 3.2566    89
 3.2616   110
 3.2666   106
 3.2716   118
 3.2766   125
 3.2816   113
 3.2866   110
 3.2916   106
 3.2966   127
 3.3016   128
 3.3066   140
 3.3116   136
 3.3166   117
 3.3216   130
 3.3266   145
 3.3316   134
 3.3366   120
 3.3416   112
 3.3466   117
 3.3516   111
 3.3566   119
 3.3616   110
 3.3666   100
 3.3716    90
 3.3766    91
 3.3816    91
 3.3866    85
 3.3916    68
 3.3966    76
 3.4016    69
 3.4066    76
 3.4116    64
 3.4166    47
 3.4216    59
 3.4266    57
 3.4316    63
 3.4366    67
 3.4416    62
 3.4466    71
 3.4516    73
 3.4566    56
 3.4616    61
 3.4666    36
 3.4716    52
 3.4766    56
 3.4816    63
 3.4866    48
 3.4916    51
 3.4966    72
 3.5015    70
 3.5065    54
 3.5115    61
 3.5165    64
 3.5215    56
 3.5265    58
 3.5315    63
 3.5365    68
 3.5415    47
 3.5465    58
 3.5515    69
 3.5565    77
 3.5615    62
 3.5665    56
 3.5715    63
 3.5765    61
 3.5815    47
 3.5865    62
 3.5915    74
 3.5965    64
 3.6015    65
 3.6065    71
 3.6115    69
 3.6165    71
 3.6215    65
 3.6265    76
 3.6315    72
 3.6365    80
 3.6415    58
 3.6465    82
 3.6515    83
 3.6565    90
 3.6615    88
 3.6665    93
 3.6715    88
 3.6765    91
 3.6815    85
 3.6865    78
 3.6915   100
 3.6965    89
 3.7015    83
 3.7065    77
 3.7115    87
 3.7165    81
 3.7215    72
 3.7265    66
 3.7315    79
 3.7365    61
 3.7415    61
 3.7465    79
 3.7515    76
 3.7565    74
 3.7615    69
 3.7665    50
 3.7715    56
 3.7765    60
 3.7815    73
 3.7865    71
 3.7915    55
 3.7965    53
 3.8015    56
 3.8065    48
 3.8115    58
 3.8165    45
 3.8215    40
 3.8265    53
 3.8315    53
 3.8364    55
 3.8414    47
 3.8464    49
 3.8514    58
 3.8564    43
 3.8614    50
 3.8664    42
 3.8714    50
 3.8764    43
 3.8814    45
 3.8864    37
 3.8914    56
 3.8964    50
 3.9014    45
 3.9064    50
 3.9114    53
 3.9164    62
 3.9214    53
 3.9264    46
 3.9314    58
 3.9364    40
 3.9414    55
 3.9464    55
 3.9514    49
 3.9564    71
 3.9614    60
 3.9664    51
 3.9714    55
 3.9764    53
 3.9814    49
 3.9864    62
 3.9914    49
 3.9964    57
 4.0014    48
 4.0064    60
 4.0114    50
 4.0164    48
 4.0214    37
 4.0264    50
 4.0314    53
 4.0364    44
 4.0414    46
 4.0464    49
 4.0514    59
 4.0564    38
 4.0614    44
 4.0664    37
 4.0714    50
 4.0764    46
 4.0814    53
 4.0864    48
 4.0914    47
 4.0964    55
 4.1014    39
 4.1064    57
 4.1114    54
 4.1164    52
 4.1214    49
 4.1264    45
 4.1314    46
 4.1364    43
 4.1414    48
 4.1464    55
 4.1514    47
 4.1564    39
 4.1614    40
 4.1663    47
 4.1713    49
 4.1763    43
 4.1813    47
 4.1863    40
 4.1913    46
 4.1963    48
 4.2013    38
 4.2063    40
 4.2113    46
 4.2163    46
 4.2213    52
 4.2263    53
 4.2313    43
 4.2363    34
 4.2413    45
 4.2463    45
 4.2513    45
 4.2563    41
 4.2613    61
 4.2663    46
 4.2713    41
 4.2763    43
 4.2813    43
 4.2863    39
 4.2913    33
 4.2963    39
 4.3013    34
 4.3063    46
 4.3113    50
 4.3163    41
 4.3213    37
 4.3263    46
 4.3313    49
 4.3363    43
 4.3413    39
 4.3463    39
 4.3513    40
 4.3563    40
 4.3613    44
 4.3663    38
 4.3713    41
 4.3763    44
 4.3813    34
 4.3863    36
 4.3913    35
 4.3963    41
 4.4013    47
 4.4063    45
 4.4113    43
 4.4163    45
 4.4213    40
 4.4263    44
 4.4313    43
 4.4363    38
 4.4413    44
 4.4463    45
 4.4513    47
 4.4563    47
 4.4613    49
 4.4663    50
 4.4713    48
 4.4763    49
 4.4813    58
 4.4863    47
 4.4913    38
 4.4963    44
 4.5012    46
 4.5062    48
 4.5112    51
 4.5162    46
 4.5212    56
 4.5262    48
 4.5312    40
 4.5362    52
 4.5412    54
 4.5462    44
 4.5512    40
 4.5562    42
 4.5612    57
 4.5662    53
 4.5712    42
 4.5762    44
 4.5812    32
 4.5862    30
 4.5912    41
 4.5962    44
 4.6012    45
 4.6062    38
 4.6112    38
 4.6162    39
 4.6212    28
 4.6262    31
 4.6312    36
 4.6362    40
 4.6412    37
 4.6462    33
 4.6512    34
 4.6562    38
 4.6612    40
 4.6662    40
 4.6712    42
 4.6762    44
 4.6812    39
 4.6862    39
 4.6912    35
 4.6962    39
 4.7012    39
 4.7062    33
 4.7112    42
 4.7162    37
 4.7212    30
 4.7262    31
 4.7312    31
 4.7362    35
 4.7412    41
 4.7462    41
 4.7512    43
 4.7562    40
 4.7612    32
 4.7662    36
 4.7712    34
 4.7762    30
 4.7812    41
 4.7862    43
 4.7912    36
 4.7962    40
 4.8012    36
 4.8062    33
 4.8112    33
 4.8162    28
 4.8212    31
 4.8262    38
 4.8312    35
 4.8361    29
 4.8411    36
 4.8461    37
 4.8511    29
 4.8561    28
 4.8611    32
 4.8661    35
 4.8711    31
 4.8761    31
 4.8811    37
 4.8861    28
 4.8911    25
 4.8961    36
 4.9011    37
 4.9061    39
 4.9111    37
 4.9161    32
 4.9211    30
 4.9261    30
 4.9311    36
 4.9361    31
 4.9411    29
 4.9461    36
 4.9511    36
 4.9561    29
 4.9611    33
 4.9661    37
 4.9711    30
 4.9761    33
 4.9811    29
 4.9861    32
 4.9911    29
 4.9961    29
 5.0011    35
 5.0061    36
 5.0111    36
 5.0161    29
 5.0211    29
 5.0261    37
 5.0311    34
 5.0361    25
 5.0411    29
 5.0461    28
 5.0511    26
 5.0561    26
 5.0611    30
 5.0661    28
 5.0711    23
 5.0761    30
 5.0811    34
 5.0861    34
 5.0911    37
 5.0961    35
 5.1011    29
 5.1061    30
 5.1111    24
 5.1161    28
 5.1211    34
 5.1261    29
 5.1311    34
 5.1361    35
 5.1411    27
 5.1461    28
 5.1511    31
 5.1561    31
 5.1611    36
  5.166    27
  5.171    29
  5.176    27
  5.181    29
  5.186    23
  5.191    28
  5.196    26
  5.201    32
  5.206    37
  5.211    28
  5.216    28
  5.221    28
  5.226    34
  5.231    37
  5.236    21
  5.241    24
  5.246    26
  5.251    28
  5.256    23
  5.261    34
  5.266    34
  5.271    23
  5.276    29
  5.281    20
  5.286    20
  5.291    25
  5.296    31
  5.301    34
  5.306    32
  5.311    26
  5.316    25
  5.321    32
  5.326    27
  5.331    24
  5.336    26
  5.341    26
  5.346    27
  5.351    27
  5.356    24
  5.361    28
  5.366    27
  5.371    26
  5.376    27
  5.381    26
  5.386    30
  5.391    28
  5.396    32
  5.401    26
  5.406    25
  5.411    34
  5.416    26
  5.421    31
  5.426    24
  5.431    25
  5.436    25
  5.441    27
  5.446    24
  5.451    30
  5.456    26
  5.461    23
  5.466    33
  5.471    25
  5.476    21
  5.481    30
  5.486    24
  5.491    25
  5.496    34
 5.5009    22
 5.5059    21
 5.5109    23
 5.5159    24
 5.5209    26
 5.5259    30
 5.5309    29
 5.5359    32
 5.5409    21
 5.5459    16
 5.5509    18
 5.5559    37
 5.5609    26
 5.5659    32
 5.5709    28
 5.5759    25
 5.5809    22
 5.5859    25
 5.5909    24
 5.5959    23
 5.6009    27
 5.6059    24
 5.6109    22
 5.6159    28
 5.6209    25
 5.6259    28
 5.6309    22
 5.6359    23
 5.6409    25
 5.6459    23
 5.6509    23
 5.6559    21
 5.6609    28
 5.6659    26
 5.6709    17
 5.6759    18
 5.6809    23
 5.6859    17
 5.6909    22
 5.6959    25
 5.7009    25
 5.7059    30
 5.7109    20
 5.7159    23
 5.7209    21
 5.7259    21
 5.7309    23
 5.7359    24
 5.7409    29
 5.7459    19
 5.7509    22
 5.7559    18
 5.7609    27
 5.7659    20
 5.7709    27
 5.7759    26
 5.7809    21
 5.7859    26
 5.7909    14
 5.7959    21
 5.8009    22
 5.8059    23
 5.8109    13
 5.8159    27
 5.8209    23
 5.8259    26
 5.8309    30
 5.8358    19
 5.8408    28
 5.8458    21
 5.8508    19
 5.8558    25
 5.8608    30
 5.8658    23
 5.8708    30
 5.8758    26
 5.8808    25
 5.8858    27
 5.8908    24
 5.8958    31
 5.9008    22
 5.9058    21
 5.9108    17
 5.9158    27
 5.9208    31
 5.9258    20
 5.9308    16
 5.9358    26
 5.9408    23
 5.9458    25
 5.9508    27
 5.9558    32
 5.9608    25
 5.9658    23
 5.9708    18
 5.9758    19
 5.9808    24
 5.9858    26
 5.9908    19
 5.9958    25
 6.0008    27
 6.0058    22
 6.0108    24
 6.0158    15
 6.0208    15
 6.0258    24
 6.0308    14
 6.0358    29
 6.0408    16
 6.0458    22
 6.0508    19
 6.0558    29
 6.0608    26
 6.0658    16
 6.0708    18
 6.0758    23
 6.0808    21
 6.0858    25
 6.0908    20
 6.0958    21
 6.1008    20
 6.1058    20
 6.1108    16
 6.1158    20
 6.1208    16
 6.1258    20
 6.1308    14
 6.1358    16
 6.1408    18
 6.1458    17
 6.1508    20
 6.1558    13
 6.1608    16
 6.1657    19
 6.1707    21
 6.1757    22
 6.1807    17
 6.1857    17
 6.1907    22
 6.1957    18
 6.2007    18
 6.2057    18
 6.2107    22
 6.2157    26
 6.2207    24
 6.2257    16
 6.2307    19
 6.2357    18
 6.2407    28
 6.2457    26
 6.2507    23
 6.2557    17
 6.2607    27
 6.2657    35
 6.2707    23
 6.2757    22
 6.2807    29
 6.2857    33
 6.2907    32
 6.2957    25
 6.3007    23
 6.3057    30
 6.3107    33
 6.3157    34
 6.3207    36
 6.3257    52
 6.3307    53
 6.3357    45
 6.3407    52
 6.3457    62
 6.3507    66
 6.3557    66
 6.3607    79
 6.3657    69
 6.3707    80
 6.3757    88
 6.3807    97
 6.3857    95
 6.3907    86
 6.3957    92
 6.4007    91
 6.4057   104
 6.4107    88
 6.4157    84
 6.4207    95
 6.4257    93
 6.4307    74
 6.4357    86
 6.4407    96
 6.4457    68
 6.4507    71
 6.4557    72
 6.4607    50
 6.4657    57
 6.4707    44
 6.4757    41
 6.4807    44
 6.4857    45
 6.4907    27
 6.4957    24
 6.5006    37
 6.5056    24
 6.5106    22
 6.5156    23
 6.5206    22
 6.5256    17
 6.5306    14
 6.5356    32
 6.5406    16
 6.5456     9
 6.5506    16
 6.5556    16
 6.5606    18
 6.5656    13
 6.5706    15
 6.5756    19
 6.5806    15
 6.5856    18
 6.5906    15
 6.5956    17
 6.6006    19
 6.6056    17
 6.6106    16
 6.6156    12
 6.6206    15
 6.6256    21
 6.6306    14
 6.6356    14
 6.6406    15
 6.6456    17
 6.6506    14
 6.6556    14
 6.6606    21
 6.6656    14
 6.6706    14
 6.6756    12
 6.6806    15
 6.6856    17
 6.6906    12
 6.6956    14
 6.7006    17
 6.7056     8
 6.7106    20
 6.7156    17
 6.7206    23
 6.7256    12
 6.7306    12
 6.7356    13
 6.7406    16
 6.7456    12
 6.7506    12
 6.7556    21
 6.7606    12
 6.7656    16
 6.7706    20
 6.7756    18
 6.7806    14
 6.7856    10
 6.7906    12
 6.7956    21
 6.8006    12
 6.8056    14
 6.8106    20
 6.8156    10
 6.8206    11
 6.8256     9
 6.8306    16
 6.8355     7
 6.8405    12
 6.8455    14
 6.8505    16
 6.8555    10
 6.8605    15
 6.8655    20
 6.8705    10
 6.8755    16
 6.8805    18
 6.8855    11
 6.8905    18
 6.8955    11
 6.9005    12
 6.9055    17
 6.9105    12
 6.9155    14
 6.9205    17
 6.9255    14
 6.9305    12
 6.9355    11
 6.9405    20
 6.9455    15
 6.9505    14
 6.9555    14
 6.9605    17
 6.9655    20
 6.9705    16
 6.9755    14
 6.9805    13
 6.9855    18
 6.9905    17
 6.9955    14
 7.0005    27
 7.0055    25
 7.0105    26
 7.0155    24
 7.0205    19
 7.0255    17
 7.0305    17
 7.0355    20
 7.0405    20
 7.0455    20
 7.0505    28
 7.0555    22
 7.0605    26
 7.0655    25
 7.0705    22
 7.0755    30
 7.0805    25
 7.0855    14
 7.0905    30
 7.0955    18
 7.1005    19
 7.1055    27
 7.1105    17
 7.1155    18
 7.1205    15
 7.1255     9
 7.1305    16
 7.1355    11
 7.1405    10
 7.1455    17
 7.1505     8
 7.1555    14
 7.1605    10
 7.1654    10
 7.1704    14
 7.1754    13
 7.1804    17
 7.1854    22
 7.1904     9
 7.1954    15
 7.2004     9
 7.2054    15
 7.2104    11
 7.2154     8
 7.2204     8
 7.2254    11
 7.2304     9
 7.2354     6
 7.2404    11
 7.2454    10
 7.2504    12
 7.2554     9
 7.2604    13
 7.2654     9
 7.2704    11
 7.2754     4
 7.2804    10
 7.2854    13
 7.2904     9
 7.2954    17
 7.3004     6
 7.3054    12
 7.3104     7
 7.3154    13
 7.3204    17
 7.3254     7
 7.3304     9
 7.3354    10
 7.3404     6
 7.3454     8
 7.3504    15
 7.3554    11
 7.3604     9
 7.3654    14
 7.3704    10
 7.3754    13
 7.3804     8
 7.3854     9
 7.3904    19
 7.3954     9
 7.4004    11
 7.4054    11
 7.4104     7
 7.4154    12
 7.4204     5
 7.4254    18
 7.4304     9
 7.4354    11
 7.4404     8
 7.4454     9
 7.4504     9
 7.4554    11
 7.4604    13
 7.4654    11
 7.4704     8
 7.4754    17
 7.4804    12
 7.4854     5
 7.4904    12
 7.4954    13
 7.5003    12
 7.5053     6
 7.5103     8
 7.5153     3
 7.5203     7
 7.5253    13
 7.5303    11
 7.5353     9
 7.5403    17
 7.5453     9
 7.5503    13
 7.5553    12
 7.5603    12
 7.5653     8
 7.5703     5
 7.5753     7
 7.5803     9
 7.5853     5
 7.5903     7
 7.5953    10
 7.6003     8
 7.6053     5
 7.6103     8
 7.6153    11
 7.6203    12
 7.6253    14
 7.6303     6
 7.6353    17
 7.6403    11
 7.6453     3
 7.6503    10
 7.6553     9
 7.6603     9
 7.6653     9
 7.6703     6
 7.6753     4
 7.6803     1
 7.6853    10
 7.6903    10
 7.6953     5
 7.7003     7
 7.7053     9
 7.7103     7
 7.7153    11
 7.7203    14
 7.7253     6
 7.7303     8
 7.7353     8
 7.7403     9
 7.7453     6
 7.7503     4
 7.7553     7
 7.7603     6
 7.7653     8
 7.7703    10
 7.7753    15
 7.7803     3
 7.7853     4
 7.7903     5
 7.7953     4
 7.8003     7
 7.8053     5
 7.8103     7
 7.8153    11
 7.8203     6
 7.8253     5
 7.8303     6
 7.8352    11
 7.8402     4
 7.8452     7
 7.8502     8
 7.8552     8
 7.8602     8
 7.8652     5
 7.8702     7
 7.8752     3
 7.8802     2
 7.8852     6
 7.8902     7
 7.8952    10
 7.9002     6
 7.9052     6
 7.9102     4
 7.9152     9
 7.9202     6
 7.9252     6
 7.9302     7
 7.9352     7
 7.9402     5
 7.9452     8
 7.9502    15
 7.9552     7
 7.9602     8
 7.9652    10
 7.9702    10
 7.9752     8
 7.9802    10
 7.9852     7
 7.9902     3
 7.9952     8
 8.0002     7
 8.0052     2
 8.0102     6
 8.0152     6
 8.0202     8
 8.0252    12
 8.0302     7
 8.0352     5
 8.0402     6
 8.0452     4
 8.0502     5
 8.0552     5
 8.0602     1
 8.0652     6
 8.0702     8
 8.0752     6
 8.0802     8
 8.0852     2
 8.0902     5
 8.0952     3
 8.1002     8
 8.1052     6
 8.1102     6
 8.1152     4
 8.1202     6
 8.1252     7
 8.1302     8
 8.1352     4
 8.1402     4
 8.1452     7
 8.1502     7
 8.1552     7
 8.1602     3
 8.1651     6
 8.1701     3
 8.1751     5
 8.1801     4
 8.1851     9
 8.1901     4
 8.1951     3
 8.2001     6
 8.2051     7
 8.2101     8
 8.2151     2
 8.2201     2
 8.2251     3
 8.2301     5
 8.2351     7
 8.2401     4
 8.2451     2
 8.2501     4
 8.2551     7
 8.2601    11
 8.2651     4
 8.2701     6
 8.2751     5
 8.2801     5
 8.2851     7
 8.2901     3
 8.2951     5
 8.3001     6
 8.3051     5
 8.3101     5
 8.3151     3
 8.3201     4
 8.3251     8
 8.3301     5
 8.3351     2
 8.3401     5
 8.3451     6
 8.3501     9
 8.3551     6
 8.3601     1
 8.3651     4
 8.3701     4
 8.3751     4
 8.3801     4
 8.3851     4
 8.3901     6
 8.3951     2
 8.4001     5
 8.4051     1
 8.4101     1
 8.4151     4
 8.4201     3
 8.4251     3
 8.4301     3
 8.4351     2
 8.4401     4
 8.4451     9
 8.4501     2
 8.4551     4
 8.4601     3
 8.4651     1
 8.4701     1
 8.4751     5
 8.4801     4
 8.4851     3
 8.4901     2
 8.4951     3
    8.5     4
  8.505     5
   8.51     3
  8.515     4
   8.52     2
  8.525     2
   8.53     0
  8.535     3
   8.54     5
  8.545     4
   8.55     3
  8.555     2
   8.56     6
  8.565     2
   8.57     4
  8.575     2
   8.58     2
  8.585     3
   8.59     2
  8.595     4
    8.6     3
  8.605     5
   8.61     2
  8.615     3
   8.62     2
  8.625     5
   8.63     2
  8.635     4
   8.64     2
  8.645     2
   8.65     0
  8.655     2
   8.66     1
  8.665     3
   8.67     3
  8.675     2
   8.68     3
  8.685     3
   8.69     4
  8.695     1
    8.7     3
  8.705     3
   8.71     5
  8.715     7
   8.72     3
  8.725     2
   8.73     4
  8.735     2
   8.74     1
  8.745     2
   8.75     1
  8.755     3
   8.76     6
  8.765     5
   8.77     2
  8.775     3
   8.78     3
  8.785     2
   8.79     3
  8.795     1
    8.8     2
  8.805     1
   8.81     5
  8.815     0
   8.82     3
  8.825     2
   8.83     3
 8.8349     3
 8.8399     3
 8.8449     0
 8.8499     5
 8.8549     0
 8.8599     1
 8.8649     4
 8.8699     0
 8.8749     4
 8.8799     3
 8.8849     1
 8.8899     1
 8.8949     0
 8.8999     2
 8.9049     2
 8.9099     2
 8.9149     3
 8.9199     1
 8.9249     1
 8.9299     2
 8.9349     0
 8.9399     4
 8.9449     1
 8.9499     1
 8.9549     4
 8.9599     2
 8.9649     0
 8.9699     3
 8.9749     3
 8.9799     3
 8.9849     2
 8.9899     2
 8.9949     1
 8.9999     0
 9.0049     1
 9.0099     1
 9.0149     3
 9.0199     1
 9.0249     0
 9.0299     1
 9.0349     1
 9.0399     1
 9.0449     1
 9.0499     2
 9.0549     2
 9.0599     0
 9.0649     2
 9.0699     0
 9.0749     1
 9.0799     1
 9.0849     1
 9.0899     0
 9.0949     2
 9.0999     2
 9.1049     2
 9.1099     1
 9.1149     0
 9.1199     2
 9.1249     1
 9.1299     2
 9.1349     0
 9.1399     0
 9.1449     0
 9.1499     1
 9.1549     0
 9.1599     0
 9.1648     2
 9.1698     1
 9.1748     0
 9.1798     2
 9.1848     0
 9.1898     0
 9.1948     0
 9.1998     0
 9.2048     0
 9.2098     0
 9.2148     1
 9.2198     0
 9.2248     0
 9.2298     1
 9.2348     2
 9.2398     0
 9.2448     0
 9.2498     0
 9.2548     0
 9.2598     1
 9.2648     0
 9.2698     0
 9.2748     1
 9.2798     0
 9.2848     0
 9.2898     0
 9.2948     0
 9.2998     0
 9.3048     0
 9.3098     0
 9.3148     0
 9.3198     0
 9.3248     0
 9.3298     0
 9.3348     0
 9.3398     0
 9.3448     0
 9.3498     0
 9.3548     0
 9.3598     0
 9.3648     0
 9.3698     0
 9.3748     0
 9.3798     0
 9.3848     0
 9.3898     0
 9.3948     0
 9.3998     0
 9.4048     0
 9.4098     0
 9.4148     0
 9.4198     0
 9.4248     0
 9.4298     0
 9.4348     0
 9.4398     0
 9.4448     0
 9.4498     0
 9.4548     0
 9.4598     0
 9.4648     0
 9.4698     0
 9.4748     0
 9.4798     0
 9.4848     0
 9.4898     0
 9.4948     0
 9.4997     0
 9.5047     0
 9.5097     0
 9.5147     0
 9.5197     0
 9.5247     0
 9.5297     0
 9.5347     0
 9.5397     0
 9.5447     0
 9.5497     0
 9.5547     0
 9.5597     0
 9.5647     0
 9.5697     0
 9.5747     0
 9.5797     0
 9.5847     0
 9.5897     0
 9.5947     0
 9.5997     0
 9.6047     0
 9.6097     0
 9.6147     0
 9.6197     0
 9.6247     0
 9.6297     0
 9.6347     0
 9.6397     0
 9.6447     0
 9.6497     0
 9.6547     0
 9.6597     0
 9.6647     0
 9.6697     0
 9.6747     0
 9.6797     0
 9.6847     0
 9.6897     0
 9.6947     0
 9.6997     0
 9.7047     0
 9.7097     0
 9.7147     0
 9.7197     0
 9.7247     0
 9.7297     0
 9.7347     0
 9.7397     0
 9.7447     0
 9.7497     0
 9.7547     0
 9.7597     0
 9.7647     0
 9.7697     0
 9.7747     0
 9.7797     0
 9.7847     0
 9.7897     0
 9.7947     0
 9.7997     0
 9.8047     0
 9.8097     0
 9.8147     0
 9.8197     0
 9.8247     0
 9.8297     0
 9.8346     0
 9.8396     0
 9.8446     0
 9.8496     0
 9.8546     0
 9.8596     0
 9.8646     0
 9.8696     0
 9.8746     0
 9.8796     0
 9.8846     0
 9.8896     0
 9.8946     0
 9.8996     0
 9.9046     0
 9.9096     0
 9.9146     0
 9.9196     0
 9.9246     0
 9.9296     0
 9.9346     0
 9.9396     0
