Bruker Nano GmbH Berlin, Germany
Esprit 2.x

Date: 8/21/2023 3:42:56 PM
Real time: 62698
Life time: 62586
Pulse density: 6435

Primary energy: 10
Beam current: -1
Take off angle: 35
Tilt angle: 0
Azimut angle: 45

Detector type: Custom type
Window type: slew AP3.3
Detector thickness: 0.45
Si dead layer:0

Calibration, lin.: 4.998
Calibration, abs.: -477.257
Mn FWHM: 124.4
Fano factor: 0.109
Channels: 2810

Energy Counts
-0.4773     0
-0.4723     0
-0.4673     0
-0.4623     0
-0.4573     0
-0.4523     0
-0.4473     0
-0.4423     0
-0.4373     0
-0.4323     0
-0.4273     0
-0.4223     0
-0.4173     0
-0.4123     0
-0.4073     0
-0.4023     0
-0.3973     0
-0.3923     0
-0.3873     0
-0.3823     0
-0.3773     0
-0.3723     0
-0.3673     0
-0.3623     0
-0.3573     0
-0.3523     0
-0.3473     0
-0.3423     0
-0.3373     0
-0.3323     0
-0.3273     0
-0.3223     0
-0.3173     0
-0.3123     0
-0.3073     0
-0.3023     0
-0.2973     0
-0.2923     0
-0.2873     0
-0.2823     0
-0.2773     0
-0.2723     0
-0.2673     0
-0.2623     0
-0.2573     0
-0.2523     0
-0.2473     0
-0.2423     0
-0.2373     0
-0.2323     0
-0.2273     0
-0.2223     0
-0.2173     0
-0.2123     0
-0.2073     0
-0.2023     0
-0.1973     0
-0.1923     0
-0.1873     0
-0.1823     0
-0.1773     0
-0.1723     0
-0.1673     0
-0.1624     0
-0.1574     0
-0.1524     0
-0.1474     0
-0.1424     0
-0.1374     0
-0.1324     0
-0.1274     0
-0.1224     0
-0.1174     0
-0.1124     0
-0.1074     0
-0.1024     0
-0.0974     0
-0.0924     0
-0.0874     0
-0.0824     0
-0.0774     1
-0.0724     2
-0.0674     5
-0.0624    18
-0.0574    36
-0.0524   119
-0.0474   240
-0.0424   552
-0.0374   999
-0.0324  1749
-0.0274  3220
-0.0224  4638
-0.0174  6296
-0.0124  8267
-0.0074  9713
-0.0024 10332
 0.0026 10556
 0.0076  9841
 0.0126  8103
 0.0176  6364
 0.0226  4730
 0.0276  3180
 0.0326  1910
 0.0376  1077
 0.0426   571
 0.0476   307
 0.0526   149
 0.0576    61
 0.0626    22
 0.0676     7
 0.0726     3
 0.0776     0
 0.0826     2
 0.0876     1
 0.0926     0
 0.0976     0
 0.1026     0
 0.1076     0
 0.1126     0
 0.1176     0
 0.1226    10
 0.1276    80
 0.1326   131
 0.1376   103
 0.1426   107
 0.1476   100
 0.1526    89
 0.1576    90
 0.1626    93
 0.1675    91
 0.1725    82
 0.1775    76
 0.1825    81
 0.1875    85
 0.1925    89
 0.1975   100
 0.2025    88
 0.2075    89
 0.2125   107
 0.2175   129
 0.2225   153
 0.2275   207
 0.2325   258
 0.2375   328
 0.2425   424
 0.2475   558
 0.2525   683
 0.2575   805
 0.2625   910
 0.2675   995
 0.2725  1065
 0.2775  1087
 0.2825  1053
 0.2875   961
 0.2925   850
 0.2975   708
 0.3025   558
 0.3075   408
 0.3125   297
 0.3175   221
 0.3225   169
 0.3275   143
 0.3325   120
 0.3375    99
 0.3425    89
 0.3475    94
 0.3525   112
 0.3575   127
 0.3625   120
 0.3675   138
 0.3725   152
 0.3775   149
 0.3825   157
 0.3875   174
 0.3925   174
 0.3975   185
 0.4025   193
 0.4075   202
 0.4125   210
 0.4175   232
 0.4225   240
 0.4275   246
 0.4325   271
 0.4375   270
 0.4425   319
 0.4475   391
 0.4525   514
 0.4575   677
 0.4625   805
 0.4675  1047
 0.4725  1429
 0.4775  1958
 0.4825  2768
 0.4875  3722
 0.4925  4876
 0.4975  6009
 0.5024  7359
 0.5074  8674
 0.5124  9854
 0.5174 10706
 0.5224 11092
 0.5274 11370
 0.5324 10726
 0.5374  9793
 0.5424  8567
 0.5474  7324
 0.5524  5867
 0.5574  4411
 0.5624  3196
 0.5674  2374
 0.5724  1714
 0.5774  1094
 0.5824   726
 0.5874   526
 0.5924   387
 0.5974   300
 0.6024   251
 0.6074   221
 0.6124   199
 0.6174   215
 0.6224   225
 0.6274   227
 0.6324   230
 0.6374   224
 0.6424   211
 0.6474   205
 0.6524   187
 0.6574   201
 0.6624   236
 0.6674   285
 0.6724   310
 0.6774   357
 0.6824   386
 0.6874   428
 0.6924   436
 0.6974   535
 0.7024   489
 0.7074   543
 0.7124   592
 0.7174   551
 0.7224   507
 0.7274   528
 0.7324   475
 0.7374   404
 0.7424   369
 0.7474   287
 0.7524   281
 0.7574   248
 0.7624   213
 0.7674   226
 0.7724   184
 0.7774   168
 0.7824   158
 0.7874   154
 0.7924   157
 0.7974   177
 0.8024   170
 0.8074   145
 0.8124   148
 0.8174   162
 0.8224   155
 0.8274   152
 0.8324   139
 0.8373   146
 0.8423   142
 0.8473   153
 0.8523   153
 0.8573   133
 0.8623   168
 0.8673   165
 0.8723   161
 0.8773   172
 0.8823   159
 0.8873   150
 0.8923   142
 0.8973   145
 0.9023   163
 0.9073   169
 0.9123   164
 0.9173   157
 0.9223   171
 0.9273   155
 0.9323   162
 0.9373   144
 0.9423   169
 0.9473   155
 0.9523   171
 0.9573   187
 0.9623   181
 0.9673   202
 0.9723   189
 0.9773   220
 0.9823   238
 0.9873   286
 0.9923   301
 0.9973   359
 1.0023   428
 1.0073   503
 1.0123   575
 1.0173   722
 1.0223   738
 1.0273   875
 1.0323   932
 1.0373   997
 1.0423  1040
 1.0473  1097
 1.0523  1004
 1.0573   988
 1.0623   956
 1.0673   812
 1.0723   709
 1.0773   634
 1.0823   573
 1.0873   464
 1.0923   365
 1.0973   343
 1.1023   253
 1.1073   260
 1.1123   199
 1.1173   181
 1.1223   180
 1.1273   178
 1.1323   166
 1.1373   175
 1.1423   176
 1.1473   177
 1.1523   161
 1.1573   152
 1.1623   177
 1.1672   166
 1.1722   167
 1.1772   158
 1.1822   162
 1.1872   170
 1.1922   177
 1.1972   186
 1.2022   191
 1.2072   171
 1.2122   191
 1.2172   204
 1.2222   229
 1.2272   242
 1.2322   246
 1.2372   245
 1.2422   271
 1.2472   294
 1.2522   279
 1.2572   265
 1.2622   293
 1.2672   279
 1.2722   306
 1.2772   252
 1.2822   257
 1.2872   237
 1.2922   252
 1.2972   232
 1.3022   218
 1.3072   198
 1.3122   218
 1.3172   211
 1.3222   210
 1.3272   189
 1.3322   178
 1.3372   193
 1.3422   171
 1.3472   174
 1.3522   170
 1.3572   162
 1.3622   167
 1.3672   159
 1.3722   167
 1.3772   189
 1.3822   200
 1.3872   167
 1.3922   163
 1.3972   201
 1.4022   198
 1.4072   196
 1.4122   229
 1.4172   230
 1.4222   271
 1.4272   330
 1.4322   396
 1.4372   499
 1.4422   592
 1.4472   680
 1.4522   811
 1.4572   952
 1.4622  1036
 1.4672  1151
 1.4722  1332
 1.4772  1403
 1.4822  1465
 1.4872  1482
 1.4922  1473
 1.4972  1425
 1.5021  1465
 1.5071  1357
 1.5121  1259
 1.5171  1114
 1.5221  1003
 1.5271   890
 1.5321   730
 1.5371   604
 1.5421   543
 1.5471   443
 1.5521   399
 1.5571   346
 1.5621   289
 1.5671   270
 1.5721   235
 1.5771   202
 1.5821   187
 1.5871   204
 1.5921   201
 1.5971   162
 1.6021   169
 1.6071   163
 1.6121   188
 1.6171   194
 1.6221   184
 1.6271   190
 1.6321   197
 1.6371   194
 1.6421   212
 1.6471   245
 1.6521   286
 1.6571   315
 1.6621   430
 1.6671   572
 1.6721   726
 1.6771   956
 1.6821  1253
 1.6871  1627
 1.6921  2002
 1.6971  2537
 1.7021  3029
 1.7071  3668
 1.7121  4246
 1.7171  4741
 1.7221  5345
 1.7271  5783
 1.7321  6139
 1.7371  6360
 1.7421  6445
 1.7471  6404
 1.7521  6089
 1.7571  5758
 1.7621  5418
 1.7671  4868
 1.7721  4320
 1.7771  3780
 1.7821  3202
 1.7871  2703
 1.7921  2228
 1.7971  1850
 1.8021  1489
 1.8071  1198
 1.8121   991
 1.8171   806
 1.8221   686
 1.8271   575
 1.8321   510
  1.837   482
  1.842   424
  1.847   367
  1.852   337
  1.857   320
  1.862   290
  1.867   251
  1.872   234
  1.877   213
  1.882   194
  1.887   181
  1.892   165
  1.897   154
  1.902   143
  1.907   140
  1.912   147
  1.917   135
  1.922   129
  1.927   124
  1.932   118
  1.937   118
  1.942   126
  1.947   140
  1.952   136
  1.957   133
  1.962   148
  1.967   159
  1.972   163
  1.977   164
  1.982   189
  1.987   191
  1.992   182
  1.997   210
  2.002   221
  2.007   218
  2.012   220
  2.017   230
  2.022   242
  2.027   215
  2.032   191
  2.037   193
  2.042   198
  2.047   187
  2.052   164
  2.057   150
  2.062   149
  2.067   145
  2.072   134
  2.077   124
  2.082   115
  2.087   110
  2.092   100
  2.097    95
  2.102   103
  2.107   101
  2.112   102
  2.117   103
  2.122   100
  2.127    93
  2.132   103
  2.137   105
  2.142   102
  2.147    93
  2.152    93
  2.157    99
  2.162   100
 2.1669    98
 2.1719    99
 2.1769   104
 2.1819    98
 2.1869    94
 2.1919    98
 2.1969    95
 2.2019    88
 2.2069    86
 2.2119    96
 2.2169   104
 2.2219   108
 2.2269   113
 2.2319   106
 2.2369    87
 2.2419    83
 2.2469    95
 2.2519   111
 2.2569   112
 2.2619   105
 2.2669   108
 2.2719   107
 2.2769   109
 2.2819   124
 2.2869   121
 2.2919   111
 2.2969   123
 2.3019   112
 2.3069   102
 2.3119   105
 2.3169   103
 2.3219   107
 2.3269   127
 2.3319   120
 2.3369   111
 2.3419   116
 2.3469   122
 2.3519   121
 2.3569   127
 2.3619   119
 2.3669   118
 2.3719   102
 2.3769   106
 2.3819   109
 2.3869   100
 2.3919    97
 2.3969   104
 2.4019   113
 2.4069    99
 2.4119    97
 2.4169    88
 2.4219   103
 2.4269   118
 2.4319   104
 2.4369    96
 2.4419   102
 2.4469    93
 2.4519    83
 2.4569    86
 2.4619    89
 2.4669    92
 2.4719   101
 2.4769    91
 2.4819    91
 2.4869    92
 2.4919   103
 2.4969    95
 2.5018    92
 2.5068    96
 2.5118    84
 2.5168    84
 2.5218    77
 2.5268    74
 2.5318    96
 2.5368    89
 2.5418    90
 2.5468    81
 2.5518    91
 2.5568    89
 2.5618    77
 2.5668    82
 2.5718    87
 2.5768    88
 2.5818    87
 2.5868    98
 2.5918    97
 2.5968    99
 2.6018   107
 2.6068    99
 2.6118    90
 2.6168   110
 2.6218   106
 2.6268    99
 2.6318   105
 2.6368   111
 2.6418   116
 2.6468   110
 2.6518    95
 2.6568    99
 2.6618    96
 2.6668    85
 2.6718    73
 2.6768    93
 2.6818    95
 2.6868    85
 2.6918    82
 2.6968    83
 2.7018    82
 2.7068    82
 2.7118    82
 2.7168    70
 2.7218    70
 2.7268    65
 2.7318    67
 2.7368    77
 2.7418    79
 2.7468    85
 2.7518    72
 2.7568    77
 2.7618    81
 2.7668    61
 2.7718    63
 2.7768    94
 2.7818    72
 2.7868    64
 2.7918    74
 2.7968    69
 2.8018    71
 2.8068    79
 2.8118    61
 2.8168    74
 2.8218    77
 2.8268    78
 2.8318    77
 2.8367    64
 2.8417    55
 2.8467    71
 2.8517    84
 2.8567    66
 2.8617    69
 2.8667    61
 2.8717    77
 2.8767    83
 2.8817    58
 2.8867    74
 2.8917    75
 2.8967    66
 2.9017    77
 2.9067    58
 2.9117    69
 2.9167    72
 2.9217    63
 2.9267    63
 2.9317    58
 2.9367    63
 2.9417    64
 2.9467    66
 2.9517    65
 2.9567    72
 2.9617    73
 2.9667    57
 2.9717    54
 2.9767    68
 2.9817    79
 2.9867    72
 2.9917    68
 2.9967    67
 3.0017    53
 3.0067    71
 3.0117    67
 3.0167    76
 3.0217    65
 3.0267    69
 3.0317    61
 3.0367    61
 3.0417    51
 3.0467    58
 3.0517    53
 3.0567    66
 3.0617    55
 3.0667    72
 3.0717    56
 3.0767    60
 3.0817    56
 3.0867    68
 3.0917    80
 3.0967    70
 3.1017    72
 3.1067    70
 3.1117    67
 3.1167    65
 3.1217    55
 3.1267    68
 3.1317    54
 3.1367    72
 3.1417    62
 3.1467    49
 3.1517    59
 3.1567    57
 3.1617    57
 3.1666    67
 3.1716    64
 3.1766    64
 3.1816    72
 3.1866    65
 3.1916    56
 3.1966    55
 3.2016    65
 3.2066    64
 3.2116    61
 3.2166    67
 3.2216    63
 3.2266    60
 3.2316    68
 3.2366    77
 3.2416    66
 3.2466    67
 3.2516    73
 3.2566    71
 3.2616    87
 3.2666    88
 3.2716    90
 3.2766    90
 3.2816    81
 3.2866   108
 3.2916    94
 3.2966    97
 3.3016   108
 3.3066   100
 3.3116   122
 3.3166   102
 3.3216   104
 3.3266   114
 3.3316   108
 3.3366   116
 3.3416   106
 3.3466    92
 3.3516    87
 3.3566    80
 3.3616    76
 3.3666    85
 3.3716    73
 3.3766    85
 3.3816    72
 3.3866    68
 3.3916    71
 3.3966    60
 3.4016    60
 3.4066    55
 3.4116    59
 3.4166    53
 3.4216    48
 3.4266    56
 3.4316    54
 3.4366    48
 3.4416    46
 3.4466    76
 3.4516    68
 3.4566    59
 3.4616    42
 3.4666    60
 3.4716    60
 3.4766    55
 3.4816    57
 3.4866    51
 3.4916    60
 3.4966    55
 3.5015    48
 3.5065    51
 3.5115    48
 3.5165    62
 3.5215    52
 3.5265    57
 3.5315    49
 3.5365    46
 3.5415    53
 3.5465    51
 3.5515    60
 3.5565    49
 3.5615    65
 3.5665    52
 3.5715    56
 3.5765    58
 3.5815    56
 3.5865    57
 3.5915    53
 3.5965    49
 3.6015    59
 3.6065    56
 3.6115    53
 3.6165    64
 3.6215    63
 3.6265    72
 3.6315    72
 3.6365    66
 3.6415    72
 3.6465    77
 3.6515    80
 3.6565    66
 3.6615    74
 3.6665    76
 3.6715    76
 3.6765    83
 3.6815    81
 3.6865    75
 3.6915    87
 3.6965    86
 3.7015   104
 3.7065    85
 3.7115    77
 3.7165    65
 3.7215    72
 3.7265    77
 3.7315    82
 3.7365    72
 3.7415    61
 3.7465    83
 3.7515    63
 3.7565    71
 3.7615    51
 3.7665    56
 3.7715    58
 3.7765    51
 3.7815    40
 3.7865    53
 3.7915    47
 3.7965    54
 3.8015    54
 3.8065    32
 3.8115    43
 3.8165    44
 3.8215    41
 3.8265    60
 3.8315    42
 3.8364    46
 3.8414    42
 3.8464    37
 3.8514    46
 3.8564    44
 3.8614    42
 3.8664    40
 3.8714    38
 3.8764    48
 3.8814    52
 3.8864    46
 3.8914    51
 3.8964    41
 3.9014    60
 3.9064    43
 3.9114    57
 3.9164    43
 3.9214    35
 3.9264    42
 3.9314    41
 3.9364    40
 3.9414    39
 3.9464    47
 3.9514    39
 3.9564    38
 3.9614    36
 3.9664    33
 3.9714    44
 3.9764    51
 3.9814    44
 3.9864    37
 3.9914    29
 3.9964    39
 4.0014    43
 4.0064    43
 4.0114    48
 4.0164    47
 4.0214    36
 4.0264    41
 4.0314    44
 4.0364    57
 4.0414    54
 4.0464    45
 4.0514    39
 4.0564    36
 4.0614    43
 4.0664    47
 4.0714    40
 4.0764    43
 4.0814    40
 4.0864    37
 4.0914    39
 4.0964    46
 4.1014    45
 4.1064    45
 4.1114    43
 4.1164    47
 4.1214    37
 4.1264    39
 4.1314    39
 4.1364    41
 4.1414    35
 4.1464    34
 4.1514    31
 4.1564    32
 4.1614    38
 4.1663    38
 4.1713    39
 4.1763    40
 4.1813    41
 4.1863    41
 4.1913    35
 4.1963    36
 4.2013    36
 4.2063    31
 4.2113    43
 4.2163    40
 4.2213    26
 4.2263    31
 4.2313    35
 4.2363    38
 4.2413    38
 4.2463    45
 4.2513    41
 4.2563    39
 4.2613    41
 4.2663    37
 4.2713    39
 4.2763    33
 4.2813    33
 4.2863    37
 4.2913    46
 4.2963    36
 4.3013    41
 4.3063    45
 4.3113    33
 4.3163    28
 4.3213    33
 4.3263    39
 4.3313    34
 4.3363    45
 4.3413    43
 4.3463    41
 4.3513    41
 4.3563    33
 4.3613    31
 4.3663    34
 4.3713    31
 4.3763    33
 4.3813    40
 4.3863    32
 4.3913    40
 4.3963    36
 4.4013    26
 4.4063    27
 4.4113    43
 4.4163    45
 4.4213    47
 4.4263    45
 4.4313    37
 4.4363    38
 4.4413    40
 4.4463    38
 4.4513    34
 4.4563    40
 4.4613    47
 4.4663    46
 4.4713    34
 4.4763    36
 4.4813    38
 4.4863    36
 4.4913    43
 4.4963    46
 4.5012    54
 4.5062    49
 4.5112    43
 4.5162    36
 4.5212    39
 4.5262    36
 4.5312    37
 4.5362    39
 4.5412    38
 4.5462    34
 4.5512    42
 4.5562    38
 4.5612    30
 4.5662    31
 4.5712    38
 4.5762    33
 4.5812    35
 4.5862    33
 4.5912    27
 4.5962    30
 4.6012    31
 4.6062    32
 4.6112    31
 4.6162    30
 4.6212    37
 4.6262    39
 4.6312    37
 4.6362    40
 4.6412    42
 4.6462    42
 4.6512    34
 4.6562    32
 4.6612    41
 4.6662    33
 4.6712    34
 4.6762    34
 4.6812    30
 4.6862    34
 4.6912    31
 4.6962    29
 4.7012    30
 4.7062    29
 4.7112    33
 4.7162    38
 4.7212    34
 4.7262    27
 4.7312    24
 4.7362    28
 4.7412    37
 4.7462    33
 4.7512    32
 4.7562    32
 4.7612    27
 4.7662    27
 4.7712    31
 4.7762    31
 4.7812    30
 4.7862    33
 4.7912    31
 4.7962    31
 4.8012    36
 4.8062    35
 4.8112    30
 4.8162    30
 4.8212    33
 4.8262    33
 4.8312    35
 4.8361    37
 4.8411    36
 4.8461    37
 4.8511    34
 4.8561    30
 4.8611    35
 4.8661    31
 4.8711    22
 4.8761    31
 4.8811    30
 4.8861    27
 4.8911    33
 4.8961    37
 4.9011    37
 4.9061    34
 4.9111    36
 4.9161    33
 4.9211    26
 4.9261    23
 4.9311    27
 4.9361    31
 4.9411    31
 4.9461    30
 4.9511    30
 4.9561    34
 4.9611    34
 4.9661    32
 4.9711    32
 4.9761    28
 4.9811    22
 4.9861    29
 4.9911    33
 4.9961    35
 5.0011    33
 5.0061    29
 5.0111    26
 5.0161    23
 5.0211    22
 5.0261    28
 5.0311    31
 5.0361    28
 5.0411    26
 5.0461    29
 5.0511    31
 5.0561    35
 5.0611    30
 5.0661    25
 5.0711    33
 5.0761    30
 5.0811    25
 5.0861    24
 5.0911    29
 5.0961    25
 5.1011    21
 5.1061    24
 5.1111    29
 5.1161    27
 5.1211    30
 5.1261    34
 5.1311    25
 5.1361    28
 5.1411    30
 5.1461    29
 5.1511    19
 5.1561    29
 5.1611    34
  5.166    25
  5.171    29
  5.176    30
  5.181    24
  5.186    30
  5.191    29
  5.196    26
  5.201    29
  5.206    30
  5.211    21
  5.216    27
  5.221    30
  5.226    25
  5.231    27
  5.236    33
  5.241    31
  5.246    28
  5.251    30
  5.256    27
  5.261    21
  5.266    29
  5.271    31
  5.276    27
  5.281    31
  5.286    31
  5.291    26
  5.296    23
  5.301    27
  5.306    26
  5.311    27
  5.316    20
  5.321    20
  5.326    21
  5.331    24
  5.336    21
  5.341    26
  5.346    25
  5.351    22
  5.356    17
  5.361    26
  5.366    27
  5.371    21
  5.376    22
  5.381    27
  5.386    26
  5.391    23
  5.396    21
  5.401    25
  5.406    22
  5.411    22
  5.416    26
  5.421    22
  5.426    19
  5.431    26
  5.436    25
  5.441    28
  5.446    19
  5.451    27
  5.456    24
  5.461    18
  5.466    24
  5.471    18
  5.476    20
  5.481    23
  5.486    22
  5.491    30
  5.496    20
 5.5009    22
 5.5059    24
 5.5109    18
 5.5159    27
 5.5209    22
 5.5259    16
 5.5309    25
 5.5359    15
 5.5409    19
 5.5459    21
 5.5509    21
 5.5559    18
 5.5609    21
 5.5659    20
 5.5709    23
 5.5759    23
 5.5809    24
 5.5859    27
 5.5909    20
 5.5959    25
 5.6009    16
 5.6059    27
 5.6109    23
 5.6159    24
 5.6209    23
 5.6259    23
 5.6309    21
 5.6359    20
 5.6409    22
 5.6459    21
 5.6509    26
 5.6559    29
 5.6609    29
 5.6659    23
 5.6709    19
 5.6759    21
 5.6809    17
 5.6859    23
 5.6909    18
 5.6959    21
 5.7009    20
 5.7059    28
 5.7109    20
 5.7159    16
 5.7209    26
 5.7259    24
 5.7309    24
 5.7359    26
 5.7409    26
 5.7459    22
 5.7509    17
 5.7559    22
 5.7609     9
 5.7659    27
 5.7709    20
 5.7759    20
 5.7809    24
 5.7859    14
 5.7909    16
 5.7959    25
 5.8009    27
 5.8059    11
 5.8109    20
 5.8159    15
 5.8209    23
 5.8259    20
 5.8309    20
 5.8358    15
 5.8408    20
 5.8458    20
 5.8508    27
 5.8558    22
 5.8608    19
 5.8658    23
 5.8708    18
 5.8758    13
 5.8808    20
 5.8858    22
 5.8908    23
 5.8958    21
 5.9008    19
 5.9058    20
 5.9108    27
 5.9158    20
 5.9208    18
 5.9258    23
 5.9308    21
 5.9358    33
 5.9408    19
 5.9458    14
 5.9508    16
 5.9558    20
 5.9608    16
 5.9658    16
 5.9708    16
 5.9758    21
 5.9808    18
 5.9858    21
 5.9908    20
 5.9958    21
 6.0008    15
 6.0058    21
 6.0108    11
 6.0158    22
 6.0208    10
 6.0258    15
 6.0308    19
 6.0358    20
 6.0408    28
 6.0458    15
 6.0508     9
 6.0558    21
 6.0608    17
 6.0658    20
 6.0708    18
 6.0758    13
 6.0808    21
 6.0858    17
 6.0908    13
 6.0958    22
 6.1008    15
 6.1058    20
 6.1108    13
 6.1158    16
 6.1208    14
 6.1258    14
 6.1308    20
 6.1358    14
 6.1408    15
 6.1458    17
 6.1508    23
 6.1558    21
 6.1608    16
 6.1657    11
 6.1707    16
 6.1757     9
 6.1807    13
 6.1857    16
 6.1907     9
 6.1957    15
 6.2007    13
 6.2057    19
 6.2107    16
 6.2157    14
 6.2207    11
 6.2257    19
 6.2307    19
 6.2357    25
 6.2407    24
 6.2457    28
 6.2507    19
 6.2557    26
 6.2607    35
 6.2657    21
 6.2707    25
 6.2757    28
 6.2807    21
 6.2857    30
 6.2907    29
 6.2957    24
 6.3007    36
 6.3057    38
 6.3107    41
 6.3157    39
 6.3207    28
 6.3257    54
 6.3307    56
 6.3357    58
 6.3407    41
 6.3457    51
 6.3507    40
 6.3557    72
 6.3607    61
 6.3657    90
 6.3707    63
 6.3757    89
 6.3807    69
 6.3857    84
 6.3907    77
 6.3957    87
 6.4007    99
 6.4057    89
 6.4107    83
 6.4157    78
 6.4207    85
 6.4257    79
 6.4307    83
 6.4357    68
 6.4407    68
 6.4457    67
 6.4507    76
 6.4557    56
 6.4607    52
 6.4657    48
 6.4707    40
 6.4757    35
 6.4807    37
 6.4857    34
 6.4907    23
 6.4957    27
 6.5006    23
 6.5056    28
 6.5106    19
 6.5156    22
 6.5206    18
 6.5256    30
 6.5306    14
 6.5356    17
 6.5406    17
 6.5456    12
 6.5506    17
 6.5556    22
 6.5606    18
 6.5656    14
 6.5706    18
 6.5756    14
 6.5806    18
 6.5856    15
 6.5906    10
 6.5956    20
 6.6006    10
 6.6056    14
 6.6106    16
 6.6156    17
 6.6206    16
 6.6256    17
 6.6306    23
 6.6356    11
 6.6406    10
 6.6456    14
 6.6506    15
 6.6556    14
 6.6606    13
 6.6656    19
 6.6706    13
 6.6756    17
 6.6806    17
 6.6856     7
 6.6906    14
 6.6956    16
 6.7006     9
 6.7056    12
 6.7106    12
 6.7156    13
 6.7206    13
 6.7256    14
 6.7306    14
 6.7356    10
 6.7406    15
 6.7456    17
 6.7506     9
 6.7556     9
 6.7606    10
 6.7656    13
 6.7706    10
 6.7756    11
 6.7806    13
 6.7856    14
 6.7906    16
 6.7956    17
 6.8006    12
 6.8056    10
 6.8106    17
 6.8156    17
 6.8206     6
 6.8256    11
 6.8306     9
 6.8355     7
 6.8405     8
 6.8455    12
 6.8505    13
 6.8555    10
 6.8605    10
 6.8655    18
 6.8705     7
 6.8755    13
 6.8805    12
 6.8855     9
 6.8905     6
 6.8955    11
 6.9005    18
 6.9055    13
 6.9105     7
 6.9155    11
 6.9205     8
 6.9255    12
 6.9305    13
 6.9355    16
 6.9405    10
 6.9455     6
 6.9505    20
 6.9555     8
 6.9605    14
 6.9655     7
 6.9705    19
 6.9755    20
 6.9805     9
 6.9855    19
 6.9905    11
 6.9955    13
 7.0005    21
 7.0055    21
 7.0105    22
 7.0155    21
 7.0205    19
 7.0255    23
 7.0305    16
 7.0355    24
 7.0405    22
 7.0455    24
 7.0505    21
 7.0555    19
 7.0605    14
 7.0655    28
 7.0705    20
 7.0755    16
 7.0805    22
 7.0855    26
 7.0905    18
 7.0955    15
 7.1005    13
 7.1055    15
 7.1105    17
 7.1155    19
 7.1205    17
 7.1255    14
 7.1305    13
 7.1355    17
 7.1405    10
 7.1455    10
 7.1505    15
 7.1555    13
 7.1605    13
 7.1654    20
 7.1704     9
 7.1754     7
 7.1804    17
 7.1854    11
 7.1904    11
 7.1954    17
 7.2004    16
 7.2054    13
 7.2104     7
 7.2154    12
 7.2204     6
 7.2254    16
 7.2304    12
 7.2354    11
 7.2404    10
 7.2454     6
 7.2504    11
 7.2554     5
 7.2604    10
 7.2654    11
 7.2704    14
 7.2754    10
 7.2804     7
 7.2854     7
 7.2904     9
 7.2954    11
 7.3004    11
 7.3054    12
 7.3104     8
 7.3154    10
 7.3204     9
 7.3254     9
 7.3304    11
 7.3354    12
 7.3404    18
 7.3454    13
 7.3504     9
 7.3554     7
 7.3604    14
 7.3654     3
 7.3704    12
 7.3754     9
 7.3804     6
 7.3854     7
 7.3904     8
 7.3954    16
 7.4004     9
 7.4054    11
 7.4104     8
 7.4154     7
 7.4204     8
 7.4254     8
 7.4304    15
 7.4354    14
 7.4404     9
 7.4454    11
 7.4504    11
 7.4554    13
 7.4604     9
 7.4654     6
 7.4704     8
 7.4754    10
 7.4804    11
 7.4854     8
 7.4904     5
 7.4954     6
 7.5003     6
 7.5053     9
 7.5103    11
 7.5153     6
 7.5203    10
 7.5253     1
 7.5303    13
 7.5353     9
 7.5403     7
 7.5453    12
 7.5503     3
 7.5553     7
 7.5603     2
 7.5653     5
 7.5703    15
 7.5753    12
 7.5803     9
 7.5853     5
 7.5903     7
 7.5953     2
 7.6003     9
 7.6053     7
 7.6103     7
 7.6153     8
 7.6203     5
 7.6253     7
 7.6303     5
 7.6353     8
 7.6403     7
 7.6453     8
 7.6503     8
 7.6553     7
 7.6603    10
 7.6653     6
 7.6703     9
 7.6753     7
 7.6803     6
 7.6853    11
 7.6903     9
 7.6953     3
 7.7003    10
 7.7053     6
 7.7103    10
 7.7153     9
 7.7203    12
 7.7253     6
 7.7303     4
 7.7353    14
 7.7403     7
 7.7453     6
 7.7503     6
 7.7553     4
 7.7603    10
 7.7653     6
 7.7703     6
 7.7753    11
 7.7803     8
 7.7853     8
 7.7903     5
 7.7953     4
 7.8003     7
 7.8053     4
 7.8103     9
 7.8153     3
 7.8203     4
 7.8253     6
 7.8303     7
 7.8352     4
 7.8402     6
 7.8452    10
 7.8502     6
 7.8552    10
 7.8602     5
 7.8652     6
 7.8702     6
 7.8752     8
 7.8802     9
 7.8852     9
 7.8902     8
 7.8952     6
 7.9002     3
 7.9052    10
 7.9102     3
 7.9152    10
 7.9202     5
 7.9252     5
 7.9302     8
 7.9352     5
 7.9402     8
 7.9452     4
 7.9502     5
 7.9552     5
 7.9602     5
 7.9652    10
 7.9702     4
 7.9752     5
 7.9802     5
 7.9852     7
 7.9902     2
 7.9952    13
 8.0002     9
 8.0052     5
 8.0102     6
 8.0152     7
 8.0202     8
 8.0252     6
 8.0302     7
 8.0352     7
 8.0402     8
 8.0452     5
 8.0502     6
 8.0552     4
 8.0602     5
 8.0652     6
 8.0702     3
 8.0752     5
 8.0802    10
 8.0852     8
 8.0902     9
 8.0952     4
 8.1002     3
 8.1052     6
 8.1102     8
 8.1152     9
 8.1202     6
 8.1252     5
 8.1302     8
 8.1352     4
 8.1402     8
 8.1452     7
 8.1502     5
 8.1552     5
 8.1602     5
 8.1651     6
 8.1701     8
 8.1751     3
 8.1801     7
 8.1851     1
 8.1901     1
 8.1951     8
 8.2001     2
 8.2051     3
 8.2101     2
 8.2151     5
 8.2201     5
 8.2251     6
 8.2301     3
 8.2351     6
 8.2401     3
 8.2451     6
 8.2501     2
 8.2551     9
 8.2601     4
 8.2651     6
 8.2701     6
 8.2751     4
 8.2801     5
 8.2851     4
 8.2901    11
 8.2951     6
 8.3001     4
 8.3051     4
 8.3101     4
 8.3151     4
 8.3201     3
 8.3251     4
 8.3301     6
 8.3351     2
 8.3401     4
 8.3451     1
 8.3501     3
 8.3551     2
 8.3601     6
 8.3651     6
 8.3701     8
 8.3751     6
 8.3801    10
 8.3851     4
 8.3901     2
 8.3951     3
 8.4001     4
 8.4051     3
 8.4101     4
 8.4151     4
 8.4201     3
 8.4251     5
 8.4301     3
 8.4351     2
 8.4401     3
 8.4451     3
 8.4501     8
 8.4551     6
 8.4601     3
 8.4651     1
 8.4701     4
 8.4751    10
 8.4801     4
 8.4851     5
 8.4901     1
 8.4951     4
    8.5     1
  8.505     7
   8.51     3
  8.515     6
   8.52     2
  8.525     4
   8.53     5
  8.535     1
   8.54     2
  8.545     2
   8.55     2
  8.555     3
   8.56     9
  8.565     2
   8.57     3
  8.575     7
   8.58     4
  8.585     7
   8.59     5
  8.595     7
    8.6     6
  8.605     3
   8.61     2
  8.615     4
   8.62     3
  8.625     4
   8.63     2
  8.635     3
   8.64     5
  8.645     2
   8.65     1
  8.655     2
   8.66     6
  8.665     2
   8.67     0
  8.675     5
   8.68     3
  8.685     4
   8.69     4
  8.695     5
    8.7     3
  8.705     4
   8.71     4
  8.715     3
   8.72     4
  8.725     4
   8.73     4
  8.735     2
   8.74     1
  8.745     2
   8.75     1
  8.755     2
   8.76     3
  8.765     4
   8.77     4
  8.775     5
   8.78     2
  8.785     4
   8.79     2
  8.795     2
    8.8     3
  8.805     3
   8.81     1
  8.815     0
   8.82     3
  8.825     1
   8.83     2
 8.8349     2
 8.8399     3
 8.8449     3
 8.8499     3
 8.8549     5
 8.8599     7
 8.8649     4
 8.8699     5
 8.8749     1
 8.8799     2
 8.8849     5
 8.8899     3
 8.8949     1
 8.8999     2
 8.9049     2
 8.9099     4
 8.9149     1
 8.9199     0
 8.9249     4
 8.9299     1
 8.9349     0
 8.9399     1
 8.9449     2
 8.9499     3
 8.9549     3
 8.9599     3
 8.9649     1
 8.9699     3
 8.9749     1
 8.9799     1
 8.9849     2
 8.9899     1
 8.9949     2
 8.9999     4
 9.0049     3
 9.0099     1
 9.0149     3
 9.0199     3
 9.0249     0
 9.0299     3
 9.0349     2
 9.0399     1
 9.0449     1
 9.0499     0
 9.0549     1
 9.0599     1
 9.0649     1
 9.0699     4
 9.0749     1
 9.0799     2
 9.0849     4
 9.0899     1
 9.0949     2
 9.0999     2
 9.1049     3
 9.1099     1
 9.1149     2
 9.1199     0
 9.1249     1
 9.1299     1
 9.1349     0
 9.1399     2
 9.1449     1
 9.1499     2
 9.1549     2
 9.1599     3
 9.1648     2
 9.1698     6
 9.1748     2
 9.1798     0
 9.1848     3
 9.1898     1
 9.1948     0
 9.1998     0
 9.2048     1
 9.2098     2
 9.2148     0
 9.2198     0
 9.2248     2
 9.2298     2
 9.2348     1
 9.2398     0
 9.2448     0
 9.2498     2
 9.2548     0
 9.2598     1
 9.2648     1
 9.2698     3
 9.2748     1
 9.2798     2
 9.2848     1
 9.2898     0
 9.2948     0
 9.2998     0
 9.3048     1
 9.3098     1
 9.3148     1
 9.3198     0
 9.3248     1
 9.3298     0
 9.3348     0
 9.3398     2
 9.3448     3
 9.3498     1
 9.3548     0
 9.3598     1
 9.3648     1
 9.3698     0
 9.3748     1
 9.3798     0
 9.3848     0
 9.3898     1
 9.3948     0
 9.3998     0
 9.4048     1
 9.4098     2
 9.4148     0
 9.4198     0
 9.4248     1
 9.4298     0
 9.4348     1
 9.4398     1
 9.4448     3
 9.4498     0
 9.4548     2
 9.4598     0
 9.4648     0
 9.4698     0
 9.4748     1
 9.4798     1
 9.4848     1
 9.4898     2
 9.4948     0
 9.4997     0
 9.5047     0
 9.5097     1
 9.5147     0
 9.5197     0
 9.5247     0
 9.5297     0
 9.5347     0
 9.5397     0
 9.5447     0
 9.5497     0
 9.5547     0
 9.5597     0
 9.5647     0
 9.5697     0
 9.5747     0
 9.5797     0
 9.5847     0
 9.5897     0
 9.5947     0
 9.5997     1
 9.6047     0
 9.6097     0
 9.6147     0
 9.6197     0
 9.6247     0
 9.6297     0
 9.6347     0
 9.6397     0
 9.6447     0
 9.6497     0
 9.6547     0
 9.6597     0
 9.6647     0
 9.6697     0
 9.6747     0
 9.6797     0
 9.6847     0
 9.6897     0
 9.6947     0
 9.6997     0
 9.7047     0
 9.7097     0
 9.7147     0
 9.7197     0
 9.7247     0
 9.7297     0
 9.7347     0
 9.7397     0
 9.7447     0
 9.7497     0
 9.7547     0
 9.7597     0
 9.7647     0
 9.7697     0
 9.7747     0
 9.7797     0
 9.7847     0
 9.7897     0
 9.7947     0
 9.7997     0
 9.8047     0
 9.8097     0
 9.8147     0
 9.8197     0
 9.8247     0
 9.8297     0
 9.8346     0
 9.8396     0
 9.8446     0
 9.8496     0
 9.8546     0
 9.8596     0
 9.8646     0
 9.8696     0
 9.8746     0
 9.8796     0
 9.8846     0
 9.8896     0
 9.8946     0
 9.8996     0
 9.9046     0
 9.9096     0
 9.9146     0
 9.9196     0
 9.9246     0
 9.9296     0
 9.9346     0
 9.9396     0
 9.9446     0
 9.9496     0
 9.9546     0
 9.9596     0
 9.9646     0
 9.9696     0
 9.9746     0
 9.9796     0
 9.9846     0
 9.9896     0
 9.9946     0
 9.9996     0
10.0046     0
10.0096     0
10.0146     0
10.0196     0
10.0246     0
10.0296     0
10.0346     0
10.0396     0
10.0446     0
10.0496     0
10.0546     0
10.0596     0
10.0646     0
10.0696     0
10.0746     0
10.0796     0
10.0846     0
10.0896     0
10.0946     0
10.0996     0
10.1046     0
10.1096     0
10.1146     0
10.1196     0
10.1246     0
10.1296     0
10.1346     0
10.1396     0
10.1446     0
10.1496     0
10.1546     0
10.1596     0
10.1645     0
10.1695     0
10.1745     0
10.1795     0
10.1845     0
10.1895     0
10.1945     0
10.1995     0
10.2045     0
10.2095     0
10.2145     0
10.2195     0
10.2245     0
10.2295     0
10.2345     0
10.2395     0
10.2445     0
10.2495     0
10.2545     0
10.2595     0
10.2645     0
10.2695     0
10.2745     0
10.2795     0
10.2845     0
10.2895     0
10.2945     0
10.2995     0
10.3045     0
10.3095     0
10.3145     0
10.3195     0
10.3245     0
10.3295     0
10.3345     0
10.3395     0
10.3445     0
10.3495     0
10.3545     0
10.3595     0
10.3645     0
10.3695     0
10.3745     0
10.3795     0
10.3845     0
10.3895     0
10.3945     0
10.3995     0
10.4045     0
10.4095     0
10.4145     0
10.4195     0
10.4245     0
10.4295     0
10.4345     0
10.4395     0
10.4445     0
10.4495     0
10.4545     0
10.4595     0
10.4645     0
10.4695     0
10.4745     0
10.4795     0
10.4845     0
10.4895     0
10.4945     0
10.4994     0
10.5044     0
10.5094     0
10.5144     0
10.5194     0
10.5244     0
10.5294     0
10.5344     0
10.5394     0
10.5444     0
10.5494     0
10.5544     0
10.5594     0
10.5644     0
10.5694     0
10.5744     0
10.5794     0
10.5844     0
10.5894     0
10.5944     0
10.5994     0
10.6044     0
10.6094     0
10.6144     0
10.6194     0
10.6244     0
10.6294     0
10.6344     0
10.6394     0
10.6444     0
10.6494     0
10.6544     0
10.6594     0
10.6644     0
10.6694     0
10.6744     0
10.6794     0
10.6844     0
10.6894     0
10.6944     0
10.6994     0
10.7044     0
10.7094     0
10.7144     0
10.7194     0
10.7244     0
10.7294     0
10.7344     0
10.7394     0
10.7444     0
10.7494     0
10.7544     0
10.7594     0
10.7644     0
10.7694     0
10.7744     0
10.7794     0
10.7844     0
10.7894     0
10.7944     0
10.7994     0
10.8044     0
10.8094     0
10.8144     0
10.8194     0
10.8244     0
10.8294     0
10.8343     0
10.8393     0
10.8443     0
10.8493     0
10.8543     0
10.8593     0
10.8643     0
10.8693     0
10.8743     0
10.8793     0
10.8843     0
10.8893     0
10.8943     0
10.8993     0
10.9043     0
10.9093     0
10.9143     0
10.9193     0
10.9243     0
10.9293     0
10.9343     0
10.9393     0
10.9443     0
10.9493     0
10.9543     0
10.9593     0
10.9643     0
10.9693     0
10.9743     0
10.9793     0
10.9843     0
10.9893     0
10.9943     0
10.9993     0
11.0043     0
11.0093     0
11.0143     0
11.0193     0
11.0243     0
11.0293     0
11.0343     0
11.0393     0
11.0443     0
11.0493     0
11.0543     0
11.0593     0
11.0643     0
11.0693     0
11.0743     0
11.0793     0
11.0843     0
11.0893     0
11.0943     0
11.0993     0
11.1043     0
11.1093     0
11.1143     0
11.1193     0
11.1243     0
11.1293     0
11.1343     0
11.1393     0
11.1443     0
11.1493     0
11.1543     0
11.1593     0
11.1642     0
11.1692     0
11.1742     0
11.1792     0
11.1842     0
11.1892     0
11.1942     0
11.1992     0
11.2042     0
11.2092     0
11.2142     0
11.2192     0
11.2242     0
11.2292     0
11.2342     0
11.2392     0
11.2442     0
11.2492     0
11.2542     0
11.2592     0
11.2642     0
11.2692     0
11.2742     0
11.2792     0
11.2842     0
11.2892     0
11.2942     0
11.2992     0
11.3042     0
11.3092     0
11.3142     0
11.3192     0
11.3242     0
11.3292     0
11.3342     0
11.3392     0
11.3442     0
11.3492     0
11.3542     0
11.3592     0
11.3642     0
11.3692     0
11.3742     0
11.3792     0
11.3842     0
11.3892     0
11.3942     0
11.3992     0
11.4042     0
11.4092     0
11.4142     0
11.4192     0
11.4242     0
11.4292     0
11.4342     0
11.4392     0
11.4442     0
11.4492     0
11.4542     0
11.4592     0
11.4642     0
11.4692     0
11.4742     0
11.4792     0
11.4842     0
11.4892     0
11.4942     0
11.4991     0
11.5041     0
11.5091     0
11.5141     0
11.5191     0
11.5241     0
11.5291     0
11.5341     0
11.5391     0
11.5441     0
11.5491     0
11.5541     0
11.5591     0
11.5641     0
11.5691     0
11.5741     0
11.5791     0
11.5841     0
11.5891     0
11.5941     0
11.5991     0
11.6041     0
11.6091     0
11.6141     0
11.6191     0
11.6241     0
11.6291     0
11.6341     0
11.6391     0
11.6441     0
11.6491     0
11.6541     0
11.6591     0
11.6641     0
11.6691     0
11.6741     0
11.6791     0
11.6841     0
11.6891     0
11.6941     0
11.6991     0
11.7041     0
11.7091     0
11.7141     0
11.7191     0
11.7241     0
11.7291     0
11.7341     0
11.7391     0
11.7441     0
11.7491     0
11.7541     0
11.7591     0
11.7641     0
11.7691     0
11.7741     0
11.7791     0
11.7841     0
11.7891     0
11.7941     0
11.7991     0
11.8041     0
11.8091     0
11.8141     0
11.8191     0
11.8241     0
11.8291     0
 11.834     0
 11.839     0
 11.844     0
 11.849     0
 11.854     0
 11.859     0
 11.864     0
 11.869     0
 11.874     0
 11.879     0
 11.884     0
 11.889     0
 11.894     0
 11.899     0
 11.904     0
 11.909     0
 11.914     0
 11.919     0
 11.924     0
 11.929     0
 11.934     0
 11.939     0
 11.944     0
 11.949     0
 11.954     0
 11.959     0
 11.964     0
 11.969     0
 11.974     0
 11.979     0
 11.984     0
 11.989     0
 11.994     0
 11.999     0
 12.004     0
 12.009     0
 12.014     0
 12.019     0
 12.024     0
 12.029     0
 12.034     0
 12.039     0
 12.044     0
 12.049     0
 12.054     0
 12.059     0
 12.064     0
 12.069     0
 12.074     0
 12.079     0
 12.084     0
 12.089     0
 12.094     0
 12.099     0
 12.104     0
 12.109     0
 12.114     0
 12.119     0
 12.124     0
 12.129     0
 12.134     0
 12.139     0
 12.144     0
 12.149     0
 12.154     0
 12.159     0
12.1639     0
12.1689     0
12.1739     0
12.1789     0
12.1839     0
12.1889     0
12.1939     0
12.1989     0
12.2039     0
12.2089     0
12.2139     0
12.2189     0
12.2239     0
12.2289     0
12.2339     0
12.2389     0
12.2439     0
12.2489     0
12.2539     0
12.2589     0
12.2639     0
12.2689     0
12.2739     0
12.2789     0
12.2839     0
12.2889     0
12.2939     0
12.2989     0
12.3039     0
12.3089     0
12.3139     0
12.3189     0
12.3239     0
12.3289     0
12.3339     0
12.3389     0
12.3439     0
12.3489     0
12.3539     0
12.3589     0
12.3639     0
12.3689     0
12.3739     0
12.3789     0
12.3839     0
12.3889     0
12.3939     0
12.3989     0
12.4039     0
12.4089     0
12.4139     0
12.4189     0
12.4239     0
12.4289     0
12.4339     0
12.4389     0
12.4439     0
12.4489     0
12.4539     0
12.4589     0
12.4639     0
12.4689     0
12.4739     0
12.4789     0
12.4839     0
12.4889     0
12.4939     0
12.4988     0
12.5038     0
12.5088     0
12.5138     0
12.5188     0
12.5238     0
12.5288     0
12.5338     0
12.5388     0
12.5438     0
12.5488     0
12.5538     0
12.5588     0
12.5638     0
12.5688     0
12.5738     0
12.5788     0
12.5838     0
12.5888     0
12.5938     0
12.5988     0
12.6038     0
12.6088     0
12.6138     0
12.6188     0
12.6238     0
12.6288     0
12.6338     0
12.6388     0
12.6438     0
12.6488     0
12.6538     0
12.6588     0
12.6638     0
12.6688     0
12.6738     0
12.6788     0
12.6838     0
12.6888     0
12.6938     0
12.6988     0
12.7038     0
12.7088     0
12.7138     0
12.7188     0
12.7238     0
12.7288     0
12.7338     0
12.7388     0
12.7438     0
12.7488     0
12.7538     0
12.7588     0
12.7638     0
12.7688     0
12.7738     0
12.7788     0
12.7838     0
12.7888     0
12.7938     0
12.7988     0
12.8038     0
12.8088     0
12.8138     0
12.8188     0
12.8238     0
12.8288     0
12.8337     0
12.8387     0
12.8437     0
12.8487     0
12.8537     0
12.8587     0
12.8637     0
12.8687     0
12.8737     0
12.8787     0
12.8837     0
12.8887     0
12.8937     0
12.8987     0
12.9037     0
12.9087     0
12.9137     0
12.9187     0
12.9237     0
12.9287     0
12.9337     0
12.9387     0
12.9437     0
12.9487     0
12.9537     0
12.9587     0
12.9637     0
12.9687     0
12.9737     0
12.9787     0
12.9837     0
12.9887     0
12.9937     0
12.9987     0
13.0037     0
13.0087     0
13.0137     0
13.0187     0
13.0237     0
13.0287     0
13.0337     0
13.0387     0
13.0437     0
13.0487     0
13.0537     0
13.0587     0
13.0637     0
13.0687     0
13.0737     0
13.0787     0
13.0837     0
13.0887     0
13.0937     0
13.0987     0
13.1037     0
13.1087     0
13.1137     0
13.1187     0
13.1237     0
13.1287     0
13.1337     0
13.1387     0
13.1437     0
13.1487     0
13.1537     0
13.1587     0
13.1636     0
13.1686     0
13.1736     0
13.1786     0
13.1836     0
13.1886     0
13.1936     0
13.1986     0
13.2036     0
13.2086     0
13.2136     0
13.2186     0
13.2236     0
13.2286     0
13.2336     0
13.2386     0
13.2436     0
13.2486     0
13.2536     0
13.2586     0
13.2636     0
13.2686     0
13.2736     0
13.2786     0
13.2836     0
13.2886     0
13.2936     0
13.2986     0
13.3036     0
13.3086     0
13.3136     0
13.3186     0
13.3236     0
13.3286     0
13.3336     0
13.3386     0
13.3436     0
13.3486     0
13.3536     0
13.3586     0
13.3636     0
13.3686     0
13.3736     0
13.3786     0
13.3836     0
13.3886     0
13.3936     0
13.3986     0
13.4036     0
13.4086     0
13.4136     0
13.4186     0
13.4236     0
13.4286     0
13.4336     0
13.4386     0
13.4436     0
13.4486     0
13.4536     0
13.4586     0
13.4636     0
13.4686     0
13.4736     0
13.4786     0
13.4836     0
13.4886     0
13.4936     0
13.4985     0
13.5035     0
13.5085     0
13.5135     0
13.5185     0
13.5235     0
13.5285     0
13.5335     0
13.5385     0
13.5435     0
13.5485     0
13.5535     0
13.5585     0
13.5635     0
