Bruker Nano GmbH Berlin, Germany
Esprit 2.x

Date: 8/21/2023 3:25:53 PM
Real time: 51582
Life time: 51126
Pulse density: 7520

Primary energy: 10
Beam current: -1
Take off angle: 35
Tilt angle: 0
Azimut angle: 45

Detector type: Custom type
Window type: slew AP3.3
Detector thickness: 0.45
Si dead layer:0

Calibration, lin.: 4.998
Calibration, abs.: -477.257
Mn FWHM: 124.4
Fano factor: 0.109
Channels: 2995

Energy Counts
-0.4773     0
-0.4723     0
-0.4673     0
-0.4623     0
-0.4573     0
-0.4523     0
-0.4473     0
-0.4423     0
-0.4373     0
-0.4323     0
-0.4273     0
-0.4223     0
-0.4173     0
-0.4123     0
-0.4073     0
-0.4023     0
-0.3973     0
-0.3923     0
-0.3873     0
-0.3823     0
-0.3773     0
-0.3723     0
-0.3673     0
-0.3623     0
-0.3573     0
-0.3523     0
-0.3473     0
-0.3423     0
-0.3373     0
-0.3323     0
-0.3273     0
-0.3223     0
-0.3173     0
-0.3123     0
-0.3073     0
-0.3023     0
-0.2973     0
-0.2923     0
-0.2873     0
-0.2823     0
-0.2773     0
-0.2723     0
-0.2673     0
-0.2623     0
-0.2573     0
-0.2523     0
-0.2473     0
-0.2423     0
-0.2373     0
-0.2323     0
-0.2273     0
-0.2223     0
-0.2173     0
-0.2123     0
-0.2073     0
-0.2023     0
-0.1973     0
-0.1923     0
-0.1873     0
-0.1823     0
-0.1773     0
-0.1723     0
-0.1673     0
-0.1624     0
-0.1574     0
-0.1524     0
-0.1474     0
-0.1424     0
-0.1374     0
-0.1324     0
-0.1274     0
-0.1224     0
-0.1174     0
-0.1124     0
-0.1074     0
-0.1024     0
-0.0974     0
-0.0924     0
-0.0874     0
-0.0824     0
-0.0774     0
-0.0724     1
-0.0674     3
-0.0624    11
-0.0574    29
-0.0524    86
-0.0474   174
-0.0424   365
-0.0374   679
-0.0324  1203
-0.0274  2047
-0.0224  3090
-0.0174  4181
-0.0124  5455
-0.0074  6248
-0.0024  6977
 0.0026  6903
 0.0076  6327
 0.0126  5648
 0.0176  4215
 0.0226  2986
 0.0276  2046
 0.0326  1213
 0.0376   739
 0.0426   392
 0.0476   183
 0.0526    89
 0.0576    30
 0.0626    17
 0.0676     9
 0.0726     0
 0.0776     4
 0.0826     0
 0.0876     1
 0.0926     0
 0.0976     1
 0.1026     0
 0.1076     0
 0.1126     0
 0.1176     0
 0.1226    13
 0.1276    84
 0.1326   127
 0.1376   103
 0.1426   105
 0.1476    97
 0.1526    91
 0.1576    92
 0.1626    77
 0.1675    70
 0.1725    64
 0.1775    74
 0.1825    86
 0.1875    82
 0.1925    88
 0.1975    80
 0.2025    84
 0.2075    91
 0.2125   122
 0.2175   146
 0.2225   174
 0.2275   210
 0.2325   263
 0.2375   351
 0.2425   450
 0.2475   587
 0.2525   730
 0.2575   889
 0.2625  1014
 0.2675  1106
 0.2725  1210
 0.2775  1265
 0.2825  1196
 0.2875  1095
 0.2925   954
 0.2975   805
 0.3025   645
 0.3075   496
 0.3125   356
 0.3175   258
 0.3225   187
 0.3275   134
 0.3325   116
 0.3375   112
 0.3425   113
 0.3475   115
 0.3525   122
 0.3575   125
 0.3625   129
 0.3675   145
 0.3725   167
 0.3775   176
 0.3825   185
 0.3875   207
 0.3925   201
 0.3975   209
 0.4025   216
 0.4075   219
 0.4125   232
 0.4175   244
 0.4225   229
 0.4275   243
 0.4325   258
 0.4375   283
 0.4425   316
 0.4475   383
 0.4525   473
 0.4575   575
 0.4625   809
 0.4675  1059
 0.4725  1440
 0.4775  1967
 0.4825  2708
 0.4875  3671
 0.4925  4705
 0.4975  5782
 0.5024  7339
 0.5074  8553
 0.5124  9725
 0.5174 10667
 0.5224 11107
 0.5274 11089
 0.5324 10577
 0.5374  9810
 0.5424  8596
 0.5474  7321
 0.5524  5799
 0.5574  4472
 0.5624  3273
 0.5674  2309
 0.5724  1542
 0.5774  1033
 0.5824   675
 0.5874   486
 0.5924   323
 0.5974   235
 0.6024   196
 0.6074   193
 0.6124   198
 0.6174   167
 0.6224   172
 0.6274   159
 0.6324   171
 0.6374   148
 0.6424   157
 0.6474   169
 0.6524   147
 0.6574   164
 0.6624   202
 0.6674   201
 0.6724   254
 0.6774   283
 0.6824   294
 0.6874   353
 0.6924   371
 0.6974   419
 0.7024   447
 0.7074   474
 0.7124   484
 0.7174   481
 0.7224   384
 0.7274   431
 0.7324   355
 0.7374   335
 0.7424   323
 0.7474   287
 0.7524   197
 0.7574   210
 0.7624   177
 0.7674   198
 0.7724   153
 0.7774   153
 0.7824   154
 0.7874   145
 0.7924   148
 0.7974   125
 0.8024   144
 0.8074   124
 0.8124   138
 0.8174   127
 0.8224   138
 0.8274   142
 0.8324   140
 0.8373   140
 0.8423   141
 0.8473   142
 0.8523   147
 0.8573   146
 0.8623   131
 0.8673   143
 0.8723   135
 0.8773   135
 0.8823   157
 0.8873   162
 0.8923   155
 0.8973   132
 0.9023   174
 0.9073   155
 0.9123   119
 0.9173   165
 0.9223   144
 0.9273   158
 0.9323   144
 0.9373   163
 0.9423   148
 0.9473   166
 0.9523   151
 0.9573   148
 0.9623   153
 0.9673   165
 0.9723   158
 0.9773   165
 0.9823   175
 0.9873   184
 0.9923   198
 0.9973   242
 1.0023   218
 1.0073   268
 1.0123   326
 1.0173   366
 1.0223   390
 1.0273   386
 1.0323   455
 1.0373   442
 1.0423   487
 1.0473   477
 1.0523   485
 1.0573   462
 1.0623   396
 1.0673   400
 1.0723   335
 1.0773   286
 1.0823   291
 1.0873   241
 1.0923   250
 1.0973   215
 1.1023   193
 1.1073   199
 1.1123   170
 1.1173   175
 1.1223   174
 1.1273   178
 1.1323   187
 1.1373   162
 1.1423   150
 1.1473   153
 1.1523   164
 1.1573   162
 1.1623   167
 1.1672   158
 1.1722   170
 1.1772   176
 1.1822   156
 1.1872   187
 1.1922   209
 1.1972   212
 1.2022   227
 1.2072   235
 1.2122   276
 1.2172   306
 1.2222   336
 1.2272   366
 1.2322   416
 1.2372   438
 1.2422   512
 1.2472   556
 1.2522   581
 1.2572   596
 1.2622   575
 1.2672   538
 1.2722   547
 1.2772   513
 1.2822   471
 1.2872   465
 1.2922   332
 1.2972   329
 1.3022   304
 1.3072   254
 1.3122   253
 1.3172   229
 1.3222   203
 1.3272   220
 1.3322   173
 1.3372   161
 1.3422   177
 1.3472   177
 1.3522   163
 1.3572   154
 1.3622   176
 1.3672   138
 1.3722   149
 1.3772   142
 1.3822   159
 1.3872   183
 1.3922   171
 1.3972   169
 1.4022   202
 1.4072   193
 1.4122   226
 1.4172   243
 1.4222   272
 1.4272   335
 1.4322   416
 1.4372   514
 1.4422   634
 1.4472   718
 1.4522   847
 1.4572   981
 1.4622  1164
 1.4672  1314
 1.4722  1455
 1.4772  1574
 1.4822  1662
 1.4872  1637
 1.4922  1647
 1.4972  1708
 1.5021  1578
 1.5071  1422
 1.5121  1349
 1.5171  1197
 1.5221  1056
 1.5271   899
 1.5321   804
 1.5371   676
 1.5421   519
 1.5471   444
 1.5521   372
 1.5571   316
 1.5621   285
 1.5671   250
 1.5721   233
 1.5771   206
 1.5821   195
 1.5871   183
 1.5921   176
 1.5971   177
 1.6021   175
 1.6071   156
 1.6121   161
 1.6171   165
 1.6221   163
 1.6271   165
 1.6321   162
 1.6371   167
 1.6421   186
 1.6471   206
 1.6521   239
 1.6571   327
 1.6621   396
 1.6671   532
 1.6721   705
 1.6771   890
 1.6821  1187
 1.6871  1531
 1.6921  1906
 1.6971  2312
 1.7021  2752
 1.7071  3321
 1.7121  3889
 1.7171  4465
 1.7221  4908
 1.7271  5328
 1.7321  5634
 1.7371  5890
 1.7421  6045
 1.7471  5837
 1.7521  5635
 1.7571  5461
 1.7621  5066
 1.7671  4526
 1.7721  4063
 1.7771  3569
 1.7821  3008
 1.7871  2492
 1.7921  2114
 1.7971  1774
 1.8021  1435
 1.8071  1111
 1.8121   928
 1.8171   742
 1.8221   666
 1.8271   539
 1.8321   432
  1.837   412
  1.842   367
  1.847   355
  1.852   333
  1.857   293
  1.862   258
  1.867   243
  1.872   209
  1.877   195
  1.882   190
  1.887   173
  1.892   157
  1.897   147
  1.902   149
  1.907   142
  1.912   119
  1.917   103
  1.922   103
  1.927   107
  1.932    98
  1.937    98
  1.942   104
  1.947   107
  1.952    97
  1.957   102
  1.962   112
  1.967    99
  1.972   115
  1.977   116
  1.982   108
  1.987   124
  1.992   124
  1.997   115
  2.002   121
  2.007   120
  2.012   124
  2.017   128
  2.022   123
  2.027   134
  2.032   123
  2.037   117
  2.042   122
  2.047   115
  2.052   102
  2.057    94
  2.062   100
  2.067   106
  2.072    94
  2.077    73
  2.082    81
  2.087    97
  2.092    94
  2.097    99
  2.102    90
  2.107    89
  2.112    91
  2.117    81
  2.122    81
  2.127    87
  2.132    86
  2.137    79
  2.142    77
  2.147    82
  2.152    84
  2.157    84
  2.162    89
 2.1669    90
 2.1719    90
 2.1769    86
 2.1819    88
 2.1869    82
 2.1919    82
 2.1969    89
 2.2019    83
 2.2069    83
 2.2119    98
 2.2169    94
 2.2219    84
 2.2269    75
 2.2319    87
 2.2369    96
 2.2419    89
 2.2469    86
 2.2519    82
 2.2569    76
 2.2619    82
 2.2669    92
 2.2719    94
 2.2769    94
 2.2819    96
 2.2869    94
 2.2919    90
 2.2969    91
 2.3019    98
 2.3069   103
 2.3119   104
 2.3169   106
 2.3219   108
 2.3269   108
 2.3319   105
 2.3369    99
 2.3419    91
 2.3469    83
 2.3519    85
 2.3569    93
 2.3619    96
 2.3669    91
 2.3719    86
 2.3769    88
 2.3819    88
 2.3869    82
 2.3919    79
 2.3969    80
 2.4019    78
 2.4069    78
 2.4119    82
 2.4169    86
 2.4219    87
 2.4269    82
 2.4319    77
 2.4369    83
 2.4419    79
 2.4469    80
 2.4519    86
 2.4569    76
 2.4619    90
 2.4669    82
 2.4719    84
 2.4769    72
 2.4819    82
 2.4869    78
 2.4919    68
 2.4969    69
 2.5018    71
 2.5068    78
 2.5118    84
 2.5168    74
 2.5218    66
 2.5268    65
 2.5318    63
 2.5368    79
 2.5418    70
 2.5468    78
 2.5518    84
 2.5568    72
 2.5618    79
 2.5668    83
 2.5718    87
 2.5768   100
 2.5818    88
 2.5868    76
 2.5918    80
 2.5968    89
 2.6018   100
 2.6068    91
 2.6118    87
 2.6168    96
 2.6218    90
 2.6268    99
 2.6318   104
 2.6368    90
 2.6418    89
 2.6468    83
 2.6518    96
 2.6568    83
 2.6618    84
 2.6668    59
 2.6718    76
 2.6768    82
 2.6818    77
 2.6868    64
 2.6918    78
 2.6968    70
 2.7018    94
 2.7068    75
 2.7118    71
 2.7168    65
 2.7218    70
 2.7268    59
 2.7318    61
 2.7368    73
 2.7418    86
 2.7468    71
 2.7518    60
 2.7568    76
 2.7618    66
 2.7668    56
 2.7718    74
 2.7768    70
 2.7818    63
 2.7868    73
 2.7918    58
 2.7968    67
 2.8018    71
 2.8068    56
 2.8118    57
 2.8168    69
 2.8218    74
 2.8268    71
 2.8318    66
 2.8367    68
 2.8417    77
 2.8467    68
 2.8517    61
 2.8567    73
 2.8617    74
 2.8667    57
 2.8717    58
 2.8767    62
 2.8817    63
 2.8867    50
 2.8917    66
 2.8967    60
 2.9017    65
 2.9067    54
 2.9117    75
 2.9167    62
 2.9217    60
 2.9267    63
 2.9317    73
 2.9367    70
 2.9417    58
 2.9467    53
 2.9517    80
 2.9567    62
 2.9617    61
 2.9667    60
 2.9717    70
 2.9767    58
 2.9817    60
 2.9867    65
 2.9917    64
 2.9967    65
 3.0017    62
 3.0067    54
 3.0117    59
 3.0167    49
 3.0217    52
 3.0267    50
 3.0317    61
 3.0367    70
 3.0417    39
 3.0467    65
 3.0517    62
 3.0567    53
 3.0617    69
 3.0667    57
 3.0717    65
 3.0767    43
 3.0817    61
 3.0867    66
 3.0917    55
 3.0967    56
 3.1017    64
 3.1067    62
 3.1117    63
 3.1167    58
 3.1217    58
 3.1267    47
 3.1317    53
 3.1367    68
 3.1417    57
 3.1467    45
 3.1517    57
 3.1567    52
 3.1617    37
 3.1666    57
 3.1716    55
 3.1766    56
 3.1816    50
 3.1866    47
 3.1916    66
 3.1966    67
 3.2016    54
 3.2066    58
 3.2116    52
 3.2166    65
 3.2216    82
 3.2266    78
 3.2316    79
 3.2366    72
 3.2416    90
 3.2466    94
 3.2516   101
 3.2566   126
 3.2616   123
 3.2666   126
 3.2716   139
 3.2766   147
 3.2816   164
 3.2866   165
 3.2916   180
 3.2966   178
 3.3016   198
 3.3066   198
 3.3116   208
 3.3166   204
 3.3216   196
 3.3266   191
 3.3316   194
 3.3366   177
 3.3416   174
 3.3466   145
 3.3516   148
 3.3566   130
 3.3616   118
 3.3666   104
 3.3716   103
 3.3766    90
 3.3816    82
 3.3866    83
 3.3916    73
 3.3966    71
 3.4016    64
 3.4066    63
 3.4116    59
 3.4166    71
 3.4216    61
 3.4266    55
 3.4316    42
 3.4366    52
 3.4416    44
 3.4466    45
 3.4516    41
 3.4566    49
 3.4616    46
 3.4666    54
 3.4716    52
 3.4766    48
 3.4816    54
 3.4866    54
 3.4916    46
 3.4966    53
 3.5015    57
 3.5065    59
 3.5115    47
 3.5165    62
 3.5215    47
 3.5265    58
 3.5315    59
 3.5365    55
 3.5415    57
 3.5465    52
 3.5515    42
 3.5565    58
 3.5615    53
 3.5665    55
 3.5715    69
 3.5765    61
 3.5815    65
 3.5865    56
 3.5915    53
 3.5965    64
 3.6015    71
 3.6065    66
 3.6115    68
 3.6165    72
 3.6215    75
 3.6265    73
 3.6315    81
 3.6365    76
 3.6415    66
 3.6465    79
 3.6515    84
 3.6565    75
 3.6615    78
 3.6665    73
 3.6715    75
 3.6765    79
 3.6815    76
 3.6865    73
 3.6915    73
 3.6965    76
 3.7015    91
 3.7065    84
 3.7115    86
 3.7165    70
 3.7215    71
 3.7265    64
 3.7315    67
 3.7365    72
 3.7415    57
 3.7465    47
 3.7515    44
 3.7565    52
 3.7615    51
 3.7665    55
 3.7715    48
 3.7765    51
 3.7815    52
 3.7865    45
 3.7915    39
 3.7965    44
 3.8015    53
 3.8065    49
 3.8115    38
 3.8165    40
 3.8215    36
 3.8265    39
 3.8315    41
 3.8364    47
 3.8414    47
 3.8464    42
 3.8514    30
 3.8564    38
 3.8614    48
 3.8664    42
 3.8714    32
 3.8764    45
 3.8814    35
 3.8864    34
 3.8914    40
 3.8964    44
 3.9014    39
 3.9064    52
 3.9114    47
 3.9164    46
 3.9214    51
 3.9264    35
 3.9314    37
 3.9364    42
 3.9414    48
 3.9464    43
 3.9514    28
 3.9564    35
 3.9614    39
 3.9664    35
 3.9714    45
 3.9764    49
 3.9814    30
 3.9864    43
 3.9914    37
 3.9964    43
 4.0014    43
 4.0064    47
 4.0114    33
 4.0164    45
 4.0214    34
 4.0264    49
 4.0314    49
 4.0364    35
 4.0414    44
 4.0464    40
 4.0514    39
 4.0564    30
 4.0614    38
 4.0664    36
 4.0714    42
 4.0764    38
 4.0814    38
 4.0864    43
 4.0914    30
 4.0964    34
 4.1014    32
 4.1064    42
 4.1114    37
 4.1164    34
 4.1214    38
 4.1264    31
 4.1314    33
 4.1364    38
 4.1414    32
 4.1464    33
 4.1514    32
 4.1564    30
 4.1614    40
 4.1663    32
 4.1713    31
 4.1763    41
 4.1813    40
 4.1863    34
 4.1913    35
 4.1963    30
 4.2013    37
 4.2063    33
 4.2113    28
 4.2163    35
 4.2213    39
 4.2263    40
 4.2313    38
 4.2363    39
 4.2413    32
 4.2463    32
 4.2513    39
 4.2563    33
 4.2613    26
 4.2663    33
 4.2713    36
 4.2763    31
 4.2813    26
 4.2863    34
 4.2913    36
 4.2963    31
 4.3013    33
 4.3063    32
 4.3113    32
 4.3163    31
 4.3213    34
 4.3263    36
 4.3313    24
 4.3363    28
 4.3413    36
 4.3463    41
 4.3513    33
 4.3563    31
 4.3613    27
 4.3663    27
 4.3713    29
 4.3763    36
 4.3813    33
 4.3863    31
 4.3913    33
 4.3963    34
 4.4013    32
 4.4063    33
 4.4113    30
 4.4163    30
 4.4213    33
 4.4263    34
 4.4313    32
 4.4363    30
 4.4413    35
 4.4463    46
 4.4513    41
 4.4563    38
 4.4613    39
 4.4663    33
 4.4713    27
 4.4763    33
 4.4813    37
 4.4863    34
 4.4913    36
 4.4963    39
 4.5012    36
 4.5062    38
 4.5112    43
 4.5162    43
 4.5212    41
 4.5262    44
 4.5312    42
 4.5362    43
 4.5412    38
 4.5462    34
 4.5512    38
 4.5562    39
 4.5612    41
 4.5662    39
 4.5712    31
 4.5762    35
 4.5812    31
 4.5862    29
 4.5912    34
 4.5962    36
 4.6012    26
 4.6062    26
 4.6112    29
 4.6162    25
 4.6212    26
 4.6262    27
 4.6312    28
 4.6362    29
 4.6412    24
 4.6462    22
 4.6512    26
 4.6562    27
 4.6612    31
 4.6662    34
 4.6712    34
 4.6762    32
 4.6812    35
 4.6862    31
 4.6912    30
 4.6962    29
 4.7012    25
 4.7062    24
 4.7112    27
 4.7162    26
 4.7212    28
 4.7262    28
 4.7312    25
 4.7362    25
 4.7412    25
 4.7462    22
 4.7512    26
 4.7562    32
 4.7612    30
 4.7662    24
 4.7712    27
 4.7762    28
 4.7812    26
 4.7862    31
 4.7912    34
 4.7962    36
 4.8012    31
 4.8062    23
 4.8112    25
 4.8162    30
 4.8212    32
 4.8262    29
 4.8312    20
 4.8361    20
 4.8411    25
 4.8461    26
 4.8511    28
 4.8561    31
 4.8611    35
 4.8661    34
 4.8711    27
 4.8761    20
 4.8811    27
 4.8861    31
 4.8911    25
 4.8961    23
 4.9011    24
 4.9061    27
 4.9111    24
 4.9161    24
 4.9211    27
 4.9261    25
 4.9311    28
 4.9361    26
 4.9411    28
 4.9461    33
 4.9511    26
 4.9561    26
 4.9611    30
 4.9661    24
 4.9711    26
 4.9761    29
 4.9811    22
 4.9861    19
 4.9911    18
 4.9961    21
 5.0011    28
 5.0061    26
 5.0111    21
 5.0161    18
 5.0211    23
 5.0261    29
 5.0311    26
 5.0361    23
 5.0411    23
 5.0461    19
 5.0511    19
 5.0561    20
 5.0611    19
 5.0661    18
 5.0711    17
 5.0761    22
 5.0811    25
 5.0861    16
 5.0911    19
 5.0961    22
 5.1011    22
 5.1061    26
 5.1111    24
 5.1161    20
 5.1211    18
 5.1261    20
 5.1311    25
 5.1361    26
 5.1411    28
 5.1461    22
 5.1511    22
 5.1561    21
 5.1611    22
  5.166    23
  5.171    24
  5.176    24
  5.181    21
  5.186    27
  5.191    20
  5.196    20
  5.201    27
  5.206    20
  5.211    17
  5.216    18
  5.221    21
  5.226    27
  5.231    26
  5.236    24
  5.241    25
  5.246    23
  5.251    17
  5.256    22
  5.261    26
  5.266    25
  5.271    23
  5.276    23
  5.281    18
  5.286    22
  5.291    26
  5.296    26
  5.301    17
  5.306    19
  5.311    20
  5.316    20
  5.321    17
  5.326    20
  5.331    20
  5.336    26
  5.341    17
  5.346    21
  5.351    29
  5.356    24
  5.361    32
  5.366    26
  5.371    26
  5.376    27
  5.381    23
  5.386    17
  5.391    19
  5.396    20
  5.401    21
  5.406    20
  5.411    25
  5.416    21
  5.421    24
  5.426    26
  5.431    22
  5.436    22
  5.441    17
  5.446    20
  5.451    23
  5.456    20
  5.461    17
  5.466    21
  5.471    24
  5.476    22
  5.481    15
  5.486    15
  5.491    23
  5.496    22
 5.5009    27
 5.5059    28
 5.5109    21
 5.5159    20
 5.5209    22
 5.5259    16
 5.5309    18
 5.5359    21
 5.5409    20
 5.5459    21
 5.5509    19
 5.5559    16
 5.5609    18
 5.5659    19
 5.5709    19
 5.5759    18
 5.5809    27
 5.5859    20
 5.5909    24
 5.5959    21
 5.6009    21
 5.6059    13
 5.6109    15
 5.6159    15
 5.6209    21
 5.6259    18
 5.6309    20
 5.6359    12
 5.6409    15
 5.6459    16
 5.6509    24
 5.6559    25
 5.6609    17
 5.6659    19
 5.6709    16
 5.6759    13
 5.6809    14
 5.6859    14
 5.6909    20
 5.6959    17
 5.7009    13
 5.7059    14
 5.7109    15
 5.7159    20
 5.7209    15
 5.7259    20
 5.7309    18
 5.7359    22
 5.7409    13
 5.7459    17
 5.7509    13
 5.7559    23
 5.7609    12
 5.7659    14
 5.7709    14
 5.7759    18
 5.7809    12
 5.7859    16
 5.7909    16
 5.7959    15
 5.8009    15
 5.8059    22
 5.8109    14
 5.8159    13
 5.8209    20
 5.8259    29
 5.8309    21
 5.8358    18
 5.8408    32
 5.8458    20
 5.8508    22
 5.8558    22
 5.8608    14
 5.8658    15
 5.8708    18
 5.8758    14
 5.8808    19
 5.8858    22
 5.8908    20
 5.8958    17
 5.9008    14
 5.9058    13
 5.9108    19
 5.9158    16
 5.9208    21
 5.9258    20
 5.9308    16
 5.9358    23
 5.9408    21
 5.9458    19
 5.9508    18
 5.9558    27
 5.9608    22
 5.9658    18
 5.9708    15
 5.9758    16
 5.9808    17
 5.9858    20
 5.9908    10
 5.9958    15
 6.0008    16
 6.0058    17
 6.0108    15
 6.0158    18
 6.0208     9
 6.0258    14
 6.0308    20
 6.0358    16
 6.0408    18
 6.0458    15
 6.0508    11
 6.0558    21
 6.0608    17
 6.0658    18
 6.0708    11
 6.0758    16
 6.0808    16
 6.0858    13
 6.0908    13
 6.0958    14
 6.1008    11
 6.1058    20
 6.1108    12
 6.1158    19
 6.1208    18
 6.1258    13
 6.1308    13
 6.1358     7
 6.1408    16
 6.1458    13
 6.1508    13
 6.1558    14
 6.1608    15
 6.1657    23
 6.1707     8
 6.1757    18
 6.1807    13
 6.1857    12
 6.1907    13
 6.1957    19
 6.2007    15
 6.2057    17
 6.2107    15
 6.2157    15
 6.2207    15
 6.2257    20
 6.2307    16
 6.2357    19
 6.2407    16
 6.2457    16
 6.2507    20
 6.2557    13
 6.2607    22
 6.2657    21
 6.2707    17
 6.2757    21
 6.2807    14
 6.2857    15
 6.2907    18
 6.2957    21
 6.3007    27
 6.3057    26
 6.3107    32
 6.3157    21
 6.3207    33
 6.3257    38
 6.3307    28
 6.3357    31
 6.3407    38
 6.3457    38
 6.3507    49
 6.3557    33
 6.3607    52
 6.3657    39
 6.3707    60
 6.3757    33
 6.3807    60
 6.3857    70
 6.3907    53
 6.3957    57
 6.4007    53
 6.4057    50
 6.4107    66
 6.4157    64
 6.4207    49
 6.4257    48
 6.4307    44
 6.4357    46
 6.4407    35
 6.4457    34
 6.4507    48
 6.4557    39
 6.4607    37
 6.4657    40
 6.4707    29
 6.4757    40
 6.4807    28
 6.4857    24
 6.4907    27
 6.4957    31
 6.5006    19
 6.5056    19
 6.5106    15
 6.5156    17
 6.5206    23
 6.5256    17
 6.5306    20
 6.5356    19
 6.5406    12
 6.5456    13
 6.5506     9
 6.5556    12
 6.5606    15
 6.5656    12
 6.5706    13
 6.5756    14
 6.5806    10
 6.5856     9
 6.5906     9
 6.5956     9
 6.6006     7
 6.6056     9
 6.6106    16
 6.6156    10
 6.6206    12
 6.6256    12
 6.6306    13
 6.6356    10
 6.6406    17
 6.6456    13
 6.6506    10
 6.6556    12
 6.6606    14
 6.6656    10
 6.6706    12
 6.6756    13
 6.6806     8
 6.6856    13
 6.6906    10
 6.6956    10
 6.7006     7
 6.7056    12
 6.7106    16
 6.7156    14
 6.7206    14
 6.7256     8
 6.7306    14
 6.7356    16
 6.7406     9
 6.7456    14
 6.7506    12
 6.7556    11
 6.7606     7
 6.7656    10
 6.7706    14
 6.7756     4
 6.7806    12
 6.7856     9
 6.7906     9
 6.7956     7
 6.8006    10
 6.8056    14
 6.8106    11
 6.8156    16
 6.8206     7
 6.8256    13
 6.8306    12
 6.8355    10
 6.8405    10
 6.8455    15
 6.8505     6
 6.8555    10
 6.8605    15
 6.8655    11
 6.8705    14
 6.8755     8
 6.8805    15
 6.8855    11
 6.8905    15
 6.8955     7
 6.9005    17
 6.9055    10
 6.9105    12
 6.9155     7
 6.9205     6
 6.9255     7
 6.9305    10
 6.9355    13
 6.9405    11
 6.9455    12
 6.9505    17
 6.9555     7
 6.9605    10
 6.9655     6
 6.9705    14
 6.9755     8
 6.9805    10
 6.9855     9
 6.9905     7
 6.9955    13
 7.0005    18
 7.0055    10
 7.0105    14
 7.0155     9
 7.0205    18
 7.0255    20
 7.0305    14
 7.0355    13
 7.0405    15
 7.0455    17
 7.0505    10
 7.0555    11
 7.0605    13
 7.0655    16
 7.0705    15
 7.0755    16
 7.0805    11
 7.0855    15
 7.0905    11
 7.0955    15
 7.1005    10
 7.1055    22
 7.1105    13
 7.1155     7
 7.1205    10
 7.1255     9
 7.1305     4
 7.1355    15
 7.1405     7
 7.1455    14
 7.1505    12
 7.1555    15
 7.1605    14
 7.1654     9
 7.1704    12
 7.1754    12
 7.1804    14
 7.1854    10
 7.1904    12
 7.1954    10
 7.2004    10
 7.2054     9
 7.2104    14
 7.2154    10
 7.2204     7
 7.2254    10
 7.2304     7
 7.2354     4
 7.2404     8
 7.2454    13
 7.2504    13
 7.2554    11
 7.2604     7
 7.2654     8
 7.2704     9
 7.2754     8
 7.2804    10
 7.2854    10
 7.2904     7
 7.2954     9
 7.3004     5
 7.3054    10
 7.3104    11
 7.3154    10
 7.3204     5
 7.3254     9
 7.3304     9
 7.3354     5
 7.3404    11
 7.3454     6
 7.3504    11
 7.3554     6
 7.3604     6
 7.3654     9
 7.3704     6
 7.3754     5
 7.3804    12
 7.3854     9
 7.3904    14
 7.3954     4
 7.4004     6
 7.4054    10
 7.4104    10
 7.4154     2
 7.4204     7
 7.4254     8
 7.4304    12
 7.4354     7
 7.4404     6
 7.4454    11
 7.4504    10
 7.4554     8
 7.4604     9
 7.4654    11
 7.4704     6
 7.4754     9
 7.4804     8
 7.4854     7
 7.4904    11
 7.4954     9
 7.5003     6
 7.5053     8
 7.5103    12
 7.5153     9
 7.5203    11
 7.5253     8
 7.5303     8
 7.5353    10
 7.5403     5
 7.5453     4
 7.5503     9
 7.5553     8
 7.5603     6
 7.5653     7
 7.5703     8
 7.5753     5
 7.5803     6
 7.5853     9
 7.5903     5
 7.5953     8
 7.6003    10
 7.6053    12
 7.6103     5
 7.6153     7
 7.6203     7
 7.6253     5
 7.6303     4
 7.6353     4
 7.6403     7
 7.6453     6
 7.6503     9
 7.6553     8
 7.6603     8
 7.6653     8
 7.6703     8
 7.6753     5
 7.6803     4
 7.6853    12
 7.6903     9
 7.6953     4
 7.7003     8
 7.7053     9
 7.7103     3
 7.7153     4
 7.7203     4
 7.7253     4
 7.7303     6
 7.7353    10
 7.7403     5
 7.7453     7
 7.7503     8
 7.7553     4
 7.7603     7
 7.7653    10
 7.7703     3
 7.7753    11
 7.7803     5
 7.7853     6
 7.7903     7
 7.7953     9
 7.8003     3
 7.8053     8
 7.8103     8
 7.8153     7
 7.8203     4
 7.8253     3
 7.8303     6
 7.8352     5
 7.8402     5
 7.8452     7
 7.8502     8
 7.8552     6
 7.8602     3
 7.8652    10
 7.8702     5
 7.8752     4
 7.8802     3
 7.8852     5
 7.8902     6
 7.8952     4
 7.9002     7
 7.9052     5
 7.9102     8
 7.9152     5
 7.9202     2
 7.9252     9
 7.9302     6
 7.9352     3
 7.9402     6
 7.9452     4
 7.9502     4
 7.9552     4
 7.9602     6
 7.9652     4
 7.9702     3
 7.9752    11
 7.9802     8
 7.9852     7
 7.9902     4
 7.9952     4
 8.0002    11
 8.0052     5
 8.0102     6
 8.0152     3
 8.0202     7
 8.0252     8
 8.0302     4
 8.0352     5
 8.0402     7
 8.0452     4
 8.0502     4
 8.0552     2
 8.0602     2
 8.0652     4
 8.0702     7
 8.0752     3
 8.0802     6
 8.0852     6
 8.0902     5
 8.0952    10
 8.1002     4
 8.1052     4
 8.1102     9
 8.1152     6
 8.1202     5
 8.1252     6
 8.1302     6
 8.1352     4
 8.1402     6
 8.1452     4
 8.1502     6
 8.1552     7
 8.1602     3
 8.1651     2
 8.1701     7
 8.1751     6
 8.1801     1
 8.1851     5
 8.1901     3
 8.1951     6
 8.2001     7
 8.2051     4
 8.2101     4
 8.2151     3
 8.2201     5
 8.2251     4
 8.2301     3
 8.2351     8
 8.2401     1
 8.2451     6
 8.2501     3
 8.2551     6
 8.2601     3
 8.2651     1
 8.2701     5
 8.2751     6
 8.2801     4
 8.2851     2
 8.2901     7
 8.2951     3
 8.3001     5
 8.3051     3
 8.3101     4
 8.3151     6
 8.3201     2
 8.3251     3
 8.3301     3
 8.3351     2
 8.3401     7
 8.3451     3
 8.3501     5
 8.3551     4
 8.3601     4
 8.3651     4
 8.3701     2
 8.3751     2
 8.3801     7
 8.3851     5
 8.3901     3
 8.3951     3
 8.4001     4
 8.4051     2
 8.4101     1
 8.4151     3
 8.4201     5
 8.4251     3
 8.4301     8
 8.4351     5
 8.4401     8
 8.4451     4
 8.4501     1
 8.4551     3
 8.4601     3
 8.4651     4
 8.4701     4
 8.4751     3
 8.4801     7
 8.4851     5
 8.4901     4
 8.4951     5
    8.5     3
  8.505     0
   8.51     2
  8.515     3
   8.52     5
  8.525     2
   8.53     3
  8.535     3
   8.54     4
  8.545     3
   8.55     2
  8.555     4
   8.56     4
  8.565     1
   8.57     4
  8.575     3
   8.58     2
  8.585     5
   8.59     3
  8.595     5
    8.6     4
  8.605     2
   8.61     5
  8.615     5
   8.62     2
  8.625     5
   8.63     4
  8.635     2
   8.64     3
  8.645     2
   8.65     5
  8.655     6
   8.66     1
  8.665     4
   8.67     4
  8.675     6
   8.68     2
  8.685     1
   8.69     2
  8.695     4
    8.7     3
  8.705     2
   8.71     4
  8.715     3
   8.72     5
  8.725     4
   8.73     4
  8.735     4
   8.74     5
  8.745     3
   8.75     3
  8.755     2
   8.76     3
  8.765     3
   8.77     1
  8.775     3
   8.78     2
  8.785     7
   8.79     2
  8.795     6
    8.8     3
  8.805     3
   8.81     4
  8.815     1
   8.82     4
  8.825     2
   8.83     3
 8.8349     3
 8.8399     3
 8.8449     2
 8.8499     4
 8.8549     4
 8.8599     2
 8.8649     4
 8.8699     2
 8.8749     1
 8.8799     3
 8.8849     3
 8.8899     1
 8.8949     3
 8.8999     3
 8.9049     4
 8.9099     2
 8.9149     3
 8.9199     1
 8.9249     1
 8.9299     2
 8.9349     4
 8.9399     4
 8.9449     2
 8.9499     1
 8.9549     1
 8.9599     7
 8.9649     3
 8.9699     0
 8.9749     3
 8.9799     4
 8.9849     1
 8.9899     1
 8.9949     4
 8.9999     1
 9.0049     3
 9.0099     3
 9.0149     3
 9.0199     0
 9.0249     2
 9.0299     3
 9.0349     0
 9.0399     2
 9.0449     1
 9.0499     4
 9.0549     3
 9.0599     1
 9.0649     0
 9.0699     2
 9.0749     1
 9.0799     2
 9.0849     1
 9.0899     4
 9.0949     2
 9.0999     0
 9.1049     3
 9.1099     1
 9.1149     3
 9.1199     2
 9.1249     1
 9.1299     1
 9.1349     1
 9.1399     2
 9.1449     4
 9.1499     0
 9.1549     4
 9.1599     2
 9.1648     0
 9.1698     0
 9.1748     1
 9.1798     0
 9.1848     3
 9.1898     2
 9.1948     6
 9.1998     0
 9.2048     1
 9.2098     1
 9.2148     2
 9.2198     1
 9.2248     0
 9.2298     2
 9.2348     1
 9.2398     2
 9.2448     1
 9.2498     0
 9.2548     4
 9.2598     0
 9.2648     2
 9.2698     1
 9.2748     0
 9.2798     4
 9.2848     2
 9.2898     1
 9.2948     1
 9.2998     2
 9.3048     1
 9.3098     4
 9.3148     0
 9.3198     1
 9.3248     0
 9.3298     1
 9.3348     2
 9.3398     1
 9.3448     0
 9.3498     1
 9.3548     2
 9.3598     0
 9.3648     1
 9.3698     1
 9.3748     1
 9.3798     1
 9.3848     1
 9.3898     1
 9.3948     0
 9.3998     1
 9.4048     0
 9.4098     0
 9.4148     2
 9.4198     2
 9.4248     1
 9.4298     1
 9.4348     2
 9.4398     0
 9.4448     2
 9.4498     2
 9.4548     1
 9.4598     1
 9.4648     0
 9.4698     1
 9.4748     1
 9.4798     1
 9.4848     0
 9.4898     0
 9.4948     1
 9.4997     4
 9.5047     0
 9.5097     0
 9.5147     0
 9.5197     2
 9.5247     3
 9.5297     1
 9.5347     1
 9.5397     1
 9.5447     2
 9.5497     1
 9.5547     1
 9.5597     1
 9.5647     0
 9.5697     0
 9.5747     2
 9.5797     0
 9.5847     0
 9.5897     2
 9.5947     0
 9.5997     3
 9.6047     0
 9.6097     0
 9.6147     1
 9.6197     1
 9.6247     0
 9.6297     0
 9.6347     0
 9.6397     2
 9.6447     0
 9.6497     1
 9.6547     1
 9.6597     1
 9.6647     1
 9.6697     0
 9.6747     1
 9.6797     1
 9.6847     0
 9.6897     1
 9.6947     1
 9.6997     0
 9.7047     0
 9.7097     0
 9.7147     0
 9.7197     1
 9.7247     0
 9.7297     0
 9.7347     0
 9.7397     1
 9.7447     0
 9.7497     0
 9.7547     0
 9.7597     1
 9.7647     0
 9.7697     0
 9.7747     0
 9.7797     1
 9.7847     0
 9.7897     0
 9.7947     1
 9.7997     0
 9.8047     0
 9.8097     0
 9.8147     0
 9.8197     1
 9.8247     0
 9.8297     1
 9.8346     0
 9.8396     0
 9.8446     0
 9.8496     0
 9.8546     0
 9.8596     0
 9.8646     0
 9.8696     0
 9.8746     0
 9.8796     0
 9.8846     0
 9.8896     0
 9.8946     0
 9.8996     0
 9.9046     0
 9.9096     0
 9.9146     0
 9.9196     0
 9.9246     0
 9.9296     0
 9.9346     0
 9.9396     0
 9.9446     0
 9.9496     0
 9.9546     0
 9.9596     0
 9.9646     0
 9.9696     0
 9.9746     0
 9.9796     0
 9.9846     0
 9.9896     0
 9.9946     0
 9.9996     0
10.0046     0
10.0096     0
10.0146     0
10.0196     0
10.0246     0
10.0296     0
10.0346     0
10.0396     0
10.0446     0
10.0496     0
10.0546     0
10.0596     0
10.0646     0
10.0696     0
10.0746     0
10.0796     0
10.0846     0
10.0896     0
10.0946     0
10.0996     0
10.1046     0
10.1096     0
10.1146     0
10.1196     0
10.1246     0
10.1296     0
10.1346     0
10.1396     0
10.1446     0
10.1496     0
10.1546     0
10.1596     0
10.1645     0
10.1695     0
10.1745     0
10.1795     0
10.1845     0
10.1895     0
10.1945     0
10.1995     0
10.2045     0
10.2095     0
10.2145     0
10.2195     0
10.2245     0
10.2295     0
10.2345     0
10.2395     0
10.2445     0
10.2495     0
10.2545     0
10.2595     0
10.2645     0
10.2695     0
10.2745     0
10.2795     0
10.2845     0
10.2895     0
10.2945     0
10.2995     0
10.3045     0
10.3095     0
10.3145     0
10.3195     0
10.3245     0
10.3295     0
10.3345     0
10.3395     0
10.3445     0
10.3495     0
10.3545     0
10.3595     0
10.3645     0
10.3695     0
10.3745     0
10.3795     0
10.3845     0
10.3895     0
10.3945     0
10.3995     0
10.4045     0
10.4095     0
10.4145     0
10.4195     0
10.4245     0
10.4295     0
10.4345     0
10.4395     0
10.4445     0
10.4495     0
10.4545     0
10.4595     0
10.4645     0
10.4695     0
10.4745     0
10.4795     0
10.4845     0
10.4895     0
10.4945     0
10.4994     0
10.5044     0
10.5094     0
10.5144     0
10.5194     0
10.5244     0
10.5294     0
10.5344     0
10.5394     0
10.5444     0
10.5494     0
10.5544     0
10.5594     0
10.5644     0
10.5694     0
10.5744     0
10.5794     0
10.5844     0
10.5894     0
10.5944     0
10.5994     0
10.6044     0
10.6094     0
10.6144     0
10.6194     0
10.6244     0
10.6294     0
10.6344     0
10.6394     0
10.6444     0
10.6494     0
10.6544     0
10.6594     0
10.6644     0
10.6694     0
10.6744     0
10.6794     0
10.6844     0
10.6894     0
10.6944     0
10.6994     0
10.7044     0
10.7094     0
10.7144     0
10.7194     0
10.7244     0
10.7294     0
10.7344     0
10.7394     0
10.7444     0
10.7494     0
10.7544     0
10.7594     0
10.7644     0
10.7694     0
10.7744     0
10.7794     0
10.7844     0
10.7894     0
10.7944     0
10.7994     0
10.8044     0
10.8094     0
10.8144     0
10.8194     0
10.8244     0
10.8294     0
10.8343     0
10.8393     0
10.8443     0
10.8493     0
10.8543     0
10.8593     0
10.8643     0
10.8693     0
10.8743     0
10.8793     0
10.8843     0
10.8893     0
10.8943     0
10.8993     0
10.9043     0
10.9093     0
10.9143     0
10.9193     0
10.9243     0
10.9293     0
10.9343     0
10.9393     0
10.9443     0
10.9493     0
10.9543     0
10.9593     0
10.9643     0
10.9693     0
10.9743     0
10.9793     0
10.9843     0
10.9893     0
10.9943     0
10.9993     0
11.0043     0
11.0093     0
11.0143     0
11.0193     0
11.0243     0
11.0293     0
11.0343     0
11.0393     0
11.0443     0
11.0493     0
11.0543     0
11.0593     0
11.0643     0
11.0693     0
11.0743     0
11.0793     0
11.0843     0
11.0893     0
11.0943     0
11.0993     0
11.1043     0
11.1093     0
11.1143     0
11.1193     0
11.1243     0
11.1293     0
11.1343     0
11.1393     0
11.1443     0
11.1493     0
11.1543     0
11.1593     0
11.1642     0
11.1692     0
11.1742     0
11.1792     0
11.1842     0
11.1892     0
11.1942     0
11.1992     0
11.2042     0
11.2092     0
11.2142     0
11.2192     0
11.2242     0
11.2292     0
11.2342     0
11.2392     0
11.2442     0
11.2492     0
11.2542     0
11.2592     0
11.2642     0
11.2692     0
11.2742     0
11.2792     0
11.2842     0
11.2892     0
11.2942     0
11.2992     0
11.3042     0
11.3092     0
11.3142     0
11.3192     0
11.3242     0
11.3292     0
11.3342     0
11.3392     0
11.3442     0
11.3492     0
11.3542     0
11.3592     0
11.3642     0
11.3692     0
11.3742     0
11.3792     0
11.3842     0
11.3892     0
11.3942     0
11.3992     0
11.4042     0
11.4092     0
11.4142     0
11.4192     0
11.4242     0
11.4292     0
11.4342     0
11.4392     0
11.4442     0
11.4492     0
11.4542     0
11.4592     0
11.4642     0
11.4692     0
11.4742     0
11.4792     0
11.4842     0
11.4892     0
11.4942     0
11.4991     0
11.5041     0
11.5091     0
11.5141     0
11.5191     0
11.5241     0
11.5291     0
11.5341     0
11.5391     0
11.5441     0
11.5491     0
11.5541     0
11.5591     0
11.5641     0
11.5691     0
11.5741     0
11.5791     0
11.5841     0
11.5891     0
11.5941     0
11.5991     0
11.6041     0
11.6091     0
11.6141     0
11.6191     0
11.6241     0
11.6291     0
11.6341     0
11.6391     0
11.6441     0
11.6491     0
11.6541     0
11.6591     0
11.6641     0
11.6691     0
11.6741     0
11.6791     0
11.6841     0
11.6891     0
11.6941     0
11.6991     0
11.7041     0
11.7091     0
11.7141     0
11.7191     0
11.7241     0
11.7291     0
11.7341     0
11.7391     0
11.7441     0
11.7491     0
11.7541     0
11.7591     0
11.7641     0
11.7691     0
11.7741     0
11.7791     0
11.7841     0
11.7891     0
11.7941     0
11.7991     0
11.8041     0
11.8091     0
11.8141     0
11.8191     0
11.8241     0
11.8291     0
 11.834     0
 11.839     0
 11.844     0
 11.849     0
 11.854     0
 11.859     0
 11.864     0
 11.869     0
 11.874     0
 11.879     0
 11.884     0
 11.889     0
 11.894     0
 11.899     0
 11.904     0
 11.909     0
 11.914     0
 11.919     0
 11.924     0
 11.929     0
 11.934     0
 11.939     0
 11.944     0
 11.949     0
 11.954     0
 11.959     0
 11.964     0
 11.969     0
 11.974     0
 11.979     0
 11.984     0
 11.989     0
 11.994     0
 11.999     0
 12.004     0
 12.009     0
 12.014     0
 12.019     0
 12.024     0
 12.029     0
 12.034     0
 12.039     0
 12.044     0
 12.049     0
 12.054     0
 12.059     0
 12.064     0
 12.069     0
 12.074     0
 12.079     0
 12.084     0
 12.089     0
 12.094     0
 12.099     0
 12.104     0
 12.109     0
 12.114     0
 12.119     0
 12.124     0
 12.129     0
 12.134     0
 12.139     0
 12.144     0
 12.149     0
 12.154     0
 12.159     0
12.1639     0
12.1689     0
12.1739     0
12.1789     0
12.1839     0
12.1889     0
12.1939     0
12.1989     0
12.2039     0
12.2089     0
12.2139     0
12.2189     0
12.2239     0
12.2289     0
12.2339     0
12.2389     0
12.2439     0
12.2489     0
12.2539     0
12.2589     0
12.2639     0
12.2689     0
12.2739     0
12.2789     0
12.2839     0
12.2889     0
12.2939     0
12.2989     0
12.3039     0
12.3089     0
12.3139     0
12.3189     0
12.3239     0
12.3289     0
12.3339     0
12.3389     0
12.3439     0
12.3489     0
12.3539     0
12.3589     0
12.3639     0
12.3689     0
12.3739     0
12.3789     0
12.3839     0
12.3889     0
12.3939     0
12.3989     0
12.4039     0
12.4089     0
12.4139     0
12.4189     0
12.4239     0
12.4289     0
12.4339     0
12.4389     0
12.4439     0
12.4489     0
12.4539     0
12.4589     0
12.4639     0
12.4689     0
12.4739     0
12.4789     0
12.4839     0
12.4889     0
12.4939     0
12.4988     0
12.5038     0
12.5088     0
12.5138     0
12.5188     0
12.5238     0
12.5288     0
12.5338     0
12.5388     0
12.5438     0
12.5488     0
12.5538     0
12.5588     0
12.5638     0
12.5688     0
12.5738     0
12.5788     0
12.5838     0
12.5888     0
12.5938     0
12.5988     0
12.6038     0
12.6088     0
12.6138     0
12.6188     0
12.6238     0
12.6288     0
12.6338     0
12.6388     0
12.6438     0
12.6488     0
12.6538     0
12.6588     0
12.6638     0
12.6688     0
12.6738     0
12.6788     0
12.6838     0
12.6888     0
12.6938     0
12.6988     0
12.7038     0
12.7088     0
12.7138     0
12.7188     0
12.7238     0
12.7288     0
12.7338     0
12.7388     0
12.7438     0
12.7488     0
12.7538     0
12.7588     0
12.7638     0
12.7688     0
12.7738     0
12.7788     0
12.7838     0
12.7888     0
12.7938     0
12.7988     0
12.8038     0
12.8088     0
12.8138     0
12.8188     0
12.8238     0
12.8288     0
12.8337     0
12.8387     0
12.8437     0
12.8487     0
12.8537     0
12.8587     0
12.8637     0
12.8687     0
12.8737     0
12.8787     0
12.8837     0
12.8887     0
12.8937     0
12.8987     0
12.9037     0
12.9087     0
12.9137     0
12.9187     0
12.9237     0
12.9287     0
12.9337     0
12.9387     0
12.9437     0
12.9487     0
12.9537     0
12.9587     0
12.9637     0
12.9687     0
12.9737     0
12.9787     0
12.9837     0
12.9887     0
12.9937     0
12.9987     0
13.0037     0
13.0087     0
13.0137     0
13.0187     0
13.0237     0
13.0287     0
13.0337     0
13.0387     0
13.0437     0
13.0487     0
13.0537     0
13.0587     0
13.0637     0
13.0687     0
13.0737     0
13.0787     0
13.0837     0
13.0887     0
13.0937     0
13.0987     0
13.1037     0
13.1087     0
13.1137     0
13.1187     0
13.1237     0
13.1287     0
13.1337     0
13.1387     0
13.1437     0
13.1487     0
13.1537     0
13.1587     0
13.1636     0
13.1686     0
13.1736     0
13.1786     0
13.1836     0
13.1886     0
13.1936     0
13.1986     0
13.2036     0
13.2086     0
13.2136     0
13.2186     0
13.2236     0
13.2286     0
13.2336     0
13.2386     0
13.2436     0
13.2486     0
13.2536     0
13.2586     0
13.2636     0
13.2686     0
13.2736     0
13.2786     0
13.2836     0
13.2886     0
13.2936     0
13.2986     0
13.3036     0
13.3086     0
13.3136     0
13.3186     0
13.3236     0
13.3286     0
13.3336     0
13.3386     0
13.3436     0
13.3486     0
13.3536     0
13.3586     0
13.3636     0
13.3686     0
13.3736     0
13.3786     0
13.3836     0
13.3886     0
13.3936     0
13.3986     0
13.4036     0
13.4086     0
13.4136     0
13.4186     0
13.4236     0
13.4286     0
13.4336     0
13.4386     0
13.4436     0
13.4486     0
13.4536     0
13.4586     0
13.4636     0
13.4686     0
13.4736     0
13.4786     0
13.4836     0
13.4886     0
13.4936     0
13.4985     0
13.5035     0
13.5085     0
13.5135     0
13.5185     0
13.5235     0
13.5285     0
13.5335     0
13.5385     0
13.5435     0
13.5485     0
13.5535     0
13.5585     0
13.5635     0
13.5685     0
13.5735     0
13.5785     0
13.5835     0
13.5885     0
13.5935     0
13.5985     0
13.6035     0
13.6085     0
13.6135     0
13.6185     0
13.6235     0
13.6285     0
13.6335     0
13.6385     0
13.6435     0
13.6485     0
13.6535     0
13.6585     0
13.6635     0
13.6685     0
13.6735     0
13.6785     0
13.6835     0
13.6885     0
13.6935     0
13.6985     0
13.7035     0
13.7085     0
13.7135     0
13.7185     0
13.7235     0
13.7285     0
13.7335     0
13.7385     0
13.7435     0
13.7485     0
13.7535     0
13.7585     0
13.7635     0
13.7685     0
13.7735     0
13.7785     0
13.7835     0
13.7885     0
13.7935     0
13.7985     0
13.8035     0
13.8085     0
13.8135     0
13.8185     0
13.8235     0
13.8285     0
13.8334     0
13.8384     0
13.8434     0
13.8484     0
13.8534     0
13.8584     0
13.8634     0
13.8684     0
13.8734     0
13.8784     0
13.8834     0
13.8884     0
13.8934     0
13.8984     0
13.9034     0
13.9084     0
13.9134     0
13.9184     0
13.9234     0
13.9284     0
13.9334     0
13.9384     0
13.9434     0
13.9484     0
13.9534     0
13.9584     0
13.9634     0
13.9684     0
13.9734     0
13.9784     0
13.9834     0
13.9884     0
13.9934     0
13.9984     0
14.0034     0
14.0084     0
14.0134     0
14.0184     0
14.0234     0
14.0284     0
14.0334     0
14.0384     0
14.0434     0
14.0484     0
14.0534     0
14.0584     0
14.0634     0
14.0684     0
14.0734     0
14.0784     0
14.0834     0
14.0884     0
14.0934     0
14.0984     0
14.1034     0
14.1084     0
14.1134     0
14.1184     0
14.1234     0
14.1284     0
14.1334     0
14.1384     0
14.1434     0
14.1484     0
14.1534     0
14.1584     0
14.1633     0
14.1683     0
14.1733     0
14.1783     0
14.1833     0
14.1883     0
14.1933     0
14.1983     0
14.2033     0
14.2083     0
14.2133     0
14.2183     0
14.2233     0
14.2283     0
14.2333     0
14.2383     0
14.2433     0
14.2483     0
14.2533     0
14.2583     0
14.2633     0
14.2683     0
14.2733     0
14.2783     0
14.2833     0
14.2883     0
14.2933     0
14.2983     0
14.3033     0
14.3083     0
14.3133     0
14.3183     0
14.3233     0
14.3283     0
14.3333     0
14.3383     0
14.3433     0
14.3483     0
14.3533     0
14.3583     0
14.3633     0
14.3683     0
14.3733     0
14.3783     0
14.3833     0
14.3883     0
14.3933     0
14.3983     0
14.4033     0
14.4083     0
14.4133     0
14.4183     0
14.4233     0
14.4283     0
14.4333     0
14.4383     0
14.4433     0
14.4483     0
14.4533     0
14.4583     0
14.4633     0
14.4683     0
14.4733     0
14.4783     0
14.4833     0
14.4883     0
