Bruker Nano GmbH Berlin, Germany
Esprit 2.x

Date: 8/21/2023 2:55:40 PM
Real time: 43211
Life time: 42840
Pulse density: 7293

Primary energy: 10
Beam current: -1
Take off angle: 35
Tilt angle: 0
Azimut angle: 45

Detector type: Custom type
Window type: slew AP3.3
Detector thickness: 0.45
Si dead layer:0

Calibration, lin.: 4.998
Calibration, abs.: -477.257
Mn FWHM: 124.4
Fano factor: 0.109
Channels: 2060

Energy Counts
-0.4773     0
-0.4723     0
-0.4673     0
-0.4623     0
-0.4573     0
-0.4523     0
-0.4473     0
-0.4423     0
-0.4373     0
-0.4323     0
-0.4273     0
-0.4223     0
-0.4173     0
-0.4123     0
-0.4073     0
-0.4023     0
-0.3973     0
-0.3923     0
-0.3873     0
-0.3823     0
-0.3773     0
-0.3723     0
-0.3673     0
-0.3623     0
-0.3573     0
-0.3523     0
-0.3473     0
-0.3423     0
-0.3373     0
-0.3323     0
-0.3273     0
-0.3223     0
-0.3173     0
-0.3123     0
-0.3073     0
-0.3023     0
-0.2973     0
-0.2923     0
-0.2873     0
-0.2823     0
-0.2773     0
-0.2723     0
-0.2673     0
-0.2623     0
-0.2573     0
-0.2523     0
-0.2473     0
-0.2423     0
-0.2373     0
-0.2323     0
-0.2273     0
-0.2223     0
-0.2173     0
-0.2123     0
-0.2073     0
-0.2023     0
-0.1973     0
-0.1923     0
-0.1873     0
-0.1823     0
-0.1773     0
-0.1723     0
-0.1673     0
-0.1624     0
-0.1574     0
-0.1524     0
-0.1474     0
-0.1424     0
-0.1374     0
-0.1324     0
-0.1274     0
-0.1224     0
-0.1174     0
-0.1124     0
-0.1074     0
-0.1024     0
-0.0974     0
-0.0924     0
-0.0874     0
-0.0824     0
-0.0774     0
-0.0724     2
-0.0674     2
-0.0624    10
-0.0574    30
-0.0524    67
-0.0474   165
-0.0424   266
-0.0374   554
-0.0324  1041
-0.0274  1753
-0.0224  2523
-0.0174  3529
-0.0124  4534
-0.0074  5369
-0.0024  5827
 0.0026  5788
 0.0076  5403
 0.0126  4597
 0.0176  3545
 0.0226  2533
 0.0276  1689
 0.0326  1020
 0.0376   596
 0.0426   311
 0.0476   139
 0.0526    64
 0.0576    29
 0.0626    10
 0.0676     7
 0.0726     1
 0.0776     2
 0.0826     0
 0.0876     1
 0.0926     0
 0.0976     1
 0.1026     1
 0.1076     0
 0.1126     0
 0.1176     0
 0.1226     0
 0.1276     0
 0.1326    80
 0.1376    79
 0.1426    66
 0.1476    70
 0.1526    88
 0.1576    82
 0.1626   101
 0.1675   116
 0.1725   124
 0.1775   133
 0.1825   162
 0.1875   175
 0.1925   185
 0.1975   262
 0.2025   323
 0.2075   455
 0.2125   631
 0.2175   948
 0.2225  1414
 0.2275  2119
 0.2325  3126
 0.2375  4507
 0.2425  6368
 0.2475  8762
 0.2525 11440
 0.2575 14119
 0.2625 16852
 0.2675 18968
 0.2725 20286
 0.2775 20942
 0.2825 20269
 0.2875 18475
 0.2925 16145
 0.2975 13272
 0.3025 10245
 0.3075  7679
 0.3125  5450
 0.3175  3624
 0.3225  2317
 0.3275  1403
 0.3325   778
 0.3375   420
 0.3425   245
 0.3475   152
 0.3525    95
 0.3575    77
 0.3625    77
 0.3675    77
 0.3725    79
 0.3775    93
 0.3825    95
 0.3875    98
 0.3925   106
 0.3975   101
 0.4025   106
 0.4075   105
 0.4125    84
 0.4175    88
 0.4225    86
 0.4275    89
 0.4325    85
 0.4375    86
 0.4425    89
 0.4475    92
 0.4525   111
 0.4575   144
 0.4625   180
 0.4675   201
 0.4725   258
 0.4775   324
 0.4825   438
 0.4875   587
 0.4925   824
 0.4975   972
 0.5024  1195
 0.5074  1347
 0.5124  1533
 0.5174  1769
 0.5224  1822
 0.5274  1788
 0.5324  1723
 0.5374  1641
 0.5424  1473
 0.5474  1232
 0.5524   999
 0.5574   788
 0.5624   589
 0.5674   425
 0.5724   306
 0.5774   237
 0.5824   187
 0.5874   135
 0.5924   104
 0.5974    97
 0.6024    92
 0.6074    87
 0.6124    85
 0.6174    83
 0.6224    81
 0.6274   106
 0.6324   108
 0.6374    76
 0.6424    96
 0.6474    83
 0.6524    93
 0.6574    91
 0.6624   124
 0.6674   115
 0.6724    78
 0.6774   110
 0.6824   105
 0.6874   108
 0.6924   129
 0.6974   103
 0.7024   120
 0.7074   115
 0.7124   125
 0.7174   105
 0.7224   113
 0.7274   101
 0.7324    95
 0.7374    99
 0.7424   110
 0.7474   124
 0.7524    95
 0.7574   103
 0.7624    91
 0.7674   102
 0.7724   101
 0.7774    89
 0.7824   101
 0.7874   101
 0.7924    74
 0.7974    89
 0.8024    97
 0.8074    95
 0.8124    90
 0.8174   112
 0.8224    88
 0.8274    79
 0.8324    88
 0.8373   105
 0.8423    85
 0.8473    80
 0.8523    86
 0.8573    90
 0.8623    96
 0.8673    90
 0.8723    84
 0.8773    76
 0.8823   107
 0.8873    98
 0.8923    92
 0.8973   118
 0.9023    85
 0.9073    93
 0.9123   108
 0.9173    97
 0.9223   105
 0.9273   118
 0.9323    94
 0.9373    98
 0.9423    99
 0.9473   101
 0.9523    88
 0.9573    94
 0.9623    99
 0.9673    88
 0.9723    91
 0.9773   119
 0.9823   110
 0.9873   100
 0.9923    95
 0.9973   108
 1.0023   106
 1.0073   118
 1.0123   115
 1.0173   120
 1.0223   152
 1.0273   109
 1.0323   153
 1.0373   145
 1.0423   144
 1.0473   129
 1.0523   153
 1.0573   131
 1.0623   131
 1.0673    99
 1.0723   137
 1.0773   112
 1.0823   124
 1.0873    87
 1.0923    87
 1.0973   117
 1.1023    95
 1.1073    99
 1.1123   108
 1.1173    77
 1.1223    94
 1.1273    93
 1.1323    95
 1.1373    92
 1.1423    87
 1.1473   103
 1.1523   104
 1.1573    88
 1.1623    94
 1.1672    84
 1.1722    76
 1.1772    96
 1.1822    90
 1.1872   106
 1.1922   100
 1.1972   102
 1.2022   103
 1.2072   113
 1.2122    94
 1.2172   115
 1.2222   148
 1.2272   173
 1.2322   155
 1.2372   160
 1.2422   161
 1.2472   206
 1.2522   183
 1.2572   175
 1.2622   173
 1.2672   171
 1.2722   150
 1.2772   177
 1.2822   162
 1.2872   135
 1.2922   128
 1.2972   133
 1.3022   114
 1.3072   113
 1.3122   108
 1.3172    89
 1.3222    73
 1.3272    82
 1.3322    83
 1.3372    92
 1.3422    82
 1.3472    76
 1.3522    79
 1.3572    84
 1.3622    86
 1.3672    77
 1.3722    72
 1.3772    70
 1.3822    73
 1.3872    65
 1.3922    79
 1.3972    80
 1.4022    76
 1.4072    87
 1.4122    76
 1.4172    96
 1.4222    91
 1.4272   107
 1.4322   110
 1.4372   142
 1.4422   134
 1.4472   167
 1.4522   185
 1.4572   218
 1.4622   248
 1.4672   265
 1.4722   260
 1.4772   307
 1.4822   317
 1.4872   312
 1.4922   323
 1.4972   330
 1.5021   310
 1.5071   268
 1.5121   268
 1.5171   251
 1.5221   242
 1.5271   194
 1.5321   160
 1.5371   146
 1.5421   143
 1.5471   126
 1.5521   110
 1.5571   103
 1.5621    89
 1.5671   104
 1.5721    86
 1.5771    79
 1.5821    81
 1.5871    81
 1.5921    64
 1.5971    60
 1.6021    66
 1.6071    68
 1.6121    67
 1.6171    72
 1.6221    63
 1.6271    58
 1.6321    71
 1.6371    68
 1.6421    77
 1.6471    71
 1.6521    77
 1.6571    81
 1.6621    86
 1.6671    99
 1.6721   122
 1.6771   136
 1.6821   149
 1.6871   183
 1.6921   235
 1.6971   273
 1.7021   323
 1.7071   383
 1.7121   434
 1.7171   463
 1.7221   520
 1.7271   578
 1.7321   588
 1.7371   610
 1.7421   645
 1.7471   620
 1.7521   584
 1.7571   567
 1.7621   534
 1.7671   469
 1.7721   417
 1.7771   379
 1.7821   336
 1.7871   317
 1.7921   257
 1.7971   217
 1.8021   196
 1.8071   171
 1.8121   144
 1.8171   129
 1.8221   100
 1.8271    93
 1.8321    87
  1.837    80
  1.842    80
  1.847    76
  1.852    72
  1.857    71
  1.862    81
  1.867    79
  1.872    65
  1.877    62
  1.882    58
  1.887    58
  1.892    55
  1.897    56
  1.902    56
  1.907    52
  1.912    50
  1.917    51
  1.922    54
  1.927    54
  1.932    52
  1.937    55
  1.942    53
  1.947    54
  1.952    60
  1.957    60
  1.962    49
  1.967    42
  1.972    55
  1.977    56
  1.982    47
  1.987    50
  1.992    48
  1.997    43
  2.002    48
  2.007    53
  2.012    46
  2.017    44
  2.022    53
  2.027    54
  2.032    45
  2.037    47
  2.042    55
  2.047    54
  2.052    53
  2.057    48
  2.062    53
  2.067    55
  2.072    53
  2.077    46
  2.082    44
  2.087    49
  2.092    48
  2.097    41
  2.102    38
  2.107    41
  2.112    41
  2.117    34
  2.122    39
  2.127    51
  2.132    47
  2.137    44
  2.142    44
  2.147    50
  2.152    46
  2.157    41
  2.162    39
 2.1669    45
 2.1719    40
 2.1769    41
 2.1819    42
 2.1869    44
 2.1919    45
 2.1969    45
 2.2019    43
 2.2069    40
 2.2119    45
 2.2169    41
 2.2219    35
 2.2269    43
 2.2319    46
 2.2369    44
 2.2419    43
 2.2469    46
 2.2519    36
 2.2569    36
 2.2619    45
 2.2669    38
 2.2719    38
 2.2769    39
 2.2819    39
 2.2869    48
 2.2919    46
 2.2969    47
 2.3019    45
 2.3069    50
 2.3119    54
 2.3169    52
 2.3219    47
 2.3269    44
 2.3319    42
 2.3369    51
 2.3419    52
 2.3469    44
 2.3519    42
 2.3569    45
 2.3619    41
 2.3669    39
 2.3719    39
 2.3769    44
 2.3819    42
 2.3869    37
 2.3919    41
 2.3969    38
 2.4019    41
 2.4069    35
 2.4119    42
 2.4169    32
 2.4219    35
 2.4269    40
 2.4319    40
 2.4369    38
 2.4419    39
 2.4469    38
 2.4519    30
 2.4569    34
 2.4619    34
 2.4669    35
 2.4719    45
 2.4769    34
 2.4819    36
 2.4869    31
 2.4919    26
 2.4969    39
 2.5018    39
 2.5068    39
 2.5118    33
 2.5168    34
 2.5218    37
 2.5268    29
 2.5318    31
 2.5368    40
 2.5418    37
 2.5468    36
 2.5518    35
 2.5568    43
 2.5618    41
 2.5668    41
 2.5718    47
 2.5768    39
 2.5818    40
 2.5868    40
 2.5918    43
 2.5968    49
 2.6018    48
 2.6068    49
 2.6118    45
 2.6168    41
 2.6218    39
 2.6268    48
 2.6318    43
 2.6368    45
 2.6418    41
 2.6468    53
 2.6518    50
 2.6568    41
 2.6618    40
 2.6668    39
 2.6718    30
 2.6768    37
 2.6818    34
 2.6868    33
 2.6918    33
 2.6968    39
 2.7018    24
 2.7068    24
 2.7118    22
 2.7168    35
 2.7218    33
 2.7268    25
 2.7318    29
 2.7368    30
 2.7418    33
 2.7468    36
 2.7518    30
 2.7568    36
 2.7618    39
 2.7668    31
 2.7718    29
 2.7768    23
 2.7818    30
 2.7868    36
 2.7918    30
 2.7968    32
 2.8018    31
 2.8068    28
 2.8118    26
 2.8168    39
 2.8218    38
 2.8268    37
 2.8318    29
 2.8367    29
 2.8417    28
 2.8467    32
 2.8517    27
 2.8567    23
 2.8617    21
 2.8667    25
 2.8717    20
 2.8767    27
 2.8817    28
 2.8867    24
 2.8917    38
 2.8967    23
 2.9017    28
 2.9067    32
 2.9117    20
 2.9167    39
 2.9217    35
 2.9267    19
 2.9317    23
 2.9367    27
 2.9417    25
 2.9467    21
 2.9517    21
 2.9567    30
 2.9617    17
 2.9667    24
 2.9717    21
 2.9767    21
 2.9817    30
 2.9867    29
 2.9917    25
 2.9967    26
 3.0017    25
 3.0067    31
 3.0117    19
 3.0167    26
 3.0217    21
 3.0267    25
 3.0317    30
 3.0367    20
 3.0417    23
 3.0467    34
 3.0517    20
 3.0567    31
 3.0617    22
 3.0667    26
 3.0717    30
 3.0767    20
 3.0817    27
 3.0867    26
 3.0917    27
 3.0967    32
 3.1017    23
 3.1067    19
 3.1117    17
 3.1167    20
 3.1217    21
 3.1267    18
 3.1317    15
 3.1367    25
 3.1417    26
 3.1467    29
 3.1517    33
 3.1567    33
 3.1617    26
 3.1666    20
 3.1716    25
 3.1766    28
 3.1816    26
 3.1866    24
 3.1916    21
 3.1966    25
 3.2016    22
 3.2066    19
 3.2116    22
 3.2166    23
 3.2216    20
 3.2266    24
 3.2316    22
 3.2366    24
 3.2416    24
 3.2466    28
 3.2516    41
 3.2566    35
 3.2616    42
 3.2666    46
 3.2716    43
 3.2766    45
 3.2816    41
 3.2866    38
 3.2916    40
 3.2966    44
 3.3016    43
 3.3066    43
 3.3116    33
 3.3166    37
 3.3216    44
 3.3266    44
 3.3316    38
 3.3366    38
 3.3416    40
 3.3466    44
 3.3516    37
 3.3566    35
 3.3616    37
 3.3666    38
 3.3716    30
 3.3766    27
 3.3816    26
 3.3866    31
 3.3916    25
 3.3966    27
 3.4016    25
 3.4066    24
 3.4116    21
 3.4166    15
 3.4216    21
 3.4266    18
 3.4316    25
 3.4366    22
 3.4416    25
 3.4466    27
 3.4516    22
 3.4566    17
 3.4616    23
 3.4666    19
 3.4716    17
 3.4766    19
 3.4816    19
 3.4866    23
 3.4916    24
 3.4966    23
 3.5015    30
 3.5065    19
 3.5115    23
 3.5165    19
 3.5215    17
 3.5265    24
 3.5315    19
 3.5365    22
 3.5415    31
 3.5465    18
 3.5515    21
 3.5565    18
 3.5615    14
 3.5665    28
 3.5715    22
 3.5765    32
 3.5815    23
 3.5865    19
 3.5915    20
 3.5965    27
 3.6015    23
 3.6065    35
 3.6115    13
 3.6165    21
 3.6215    32
 3.6265    31
 3.6315    29
 3.6365    32
 3.6415    30
 3.6465    26
 3.6515    33
 3.6565    31
 3.6615    34
 3.6665    26
 3.6715    39
 3.6765    26
 3.6815    31
 3.6865    45
 3.6915    32
 3.6965    41
 3.7015    33
 3.7065    38
 3.7115    38
 3.7165    41
 3.7215    33
 3.7265    27
 3.7315    31
 3.7365    28
 3.7415    32
 3.7465    27
 3.7515    18
 3.7565    21
 3.7615    19
 3.7665    26
 3.7715    25
 3.7765    18
 3.7815    23
 3.7865    14
 3.7915    16
 3.7965    12
 3.8015    16
 3.8065    16
 3.8115    16
 3.8165    17
 3.8215    15
 3.8265    21
 3.8315    18
 3.8364    20
 3.8414    14
 3.8464    12
 3.8514    19
 3.8564    12
 3.8614    17
 3.8664    15
 3.8714    12
 3.8764    18
 3.8814     9
 3.8864    13
 3.8914    23
 3.8964    16
 3.9014    14
 3.9064    16
 3.9114    11
 3.9164    19
 3.9214    17
 3.9264    15
 3.9314    13
 3.9364    21
 3.9414    14
 3.9464    13
 3.9514    22
 3.9564    15
 3.9614    18
 3.9664    18
 3.9714    24
 3.9764    20
 3.9814    15
 3.9864    19
 3.9914    19
 3.9964    18
 4.0014    16
 4.0064    16
 4.0114    19
 4.0164    19
 4.0214    17
 4.0264    19
 4.0314    14
 4.0364    14
 4.0414    17
 4.0464    15
 4.0514    20
 4.0564    18
 4.0614    19
 4.0664    17
 4.0714    20
 4.0764    14
 4.0814    21
 4.0864    19
 4.0914    17
 4.0964    11
 4.1014    12
 4.1064    10
 4.1114    12
 4.1164    11
 4.1214    15
 4.1264    11
 4.1314    15
 4.1364    14
 4.1414    12
 4.1464    13
 4.1514    13
 4.1564     7
 4.1614    13
 4.1663    12
 4.1713    18
 4.1763    12
 4.1813    16
 4.1863    13
 4.1913    14
 4.1963    16
 4.2013    17
 4.2063    12
 4.2113    16
 4.2163    14
 4.2213    15
 4.2263    16
 4.2313    15
 4.2363    13
 4.2413    12
 4.2463    13
 4.2513    15
 4.2563    12
 4.2613    12
 4.2663    11
 4.2713    11
 4.2763    10
 4.2813    13
 4.2863    15
 4.2913    11
 4.2963    19
 4.3013    21
 4.3063    11
 4.3113    10
 4.3163     9
 4.3213     8
 4.3263    15
 4.3313    13
 4.3363    13
 4.3413     9
 4.3463     9
 4.3513     8
 4.3563    14
 4.3613    12
 4.3663    11
 4.3713    13
 4.3763    12
 4.3813     8
 4.3863    11
 4.3913    12
 4.3963    10
 4.4013     8
 4.4063    14
 4.4113    15
 4.4163    17
 4.4213    10
 4.4263     9
 4.4313    15
 4.4363    15
 4.4413    15
 4.4463    12
 4.4513     9
 4.4563    11
 4.4613    11
 4.4663    10
 4.4713    14
 4.4763    15
 4.4813    13
 4.4863    11
 4.4913    10
 4.4963    11
 4.5012    15
 4.5062    14
 4.5112    13
 4.5162    10
 4.5212     7
 4.5262    11
 4.5312    15
 4.5362    15
 4.5412    13
 4.5462    10
 4.5512     7
 4.5562     9
 4.5612     8
 4.5662    13
 4.5712    16
 4.5762    12
 4.5812    12
 4.5862    12
 4.5912    12
 4.5962    10
 4.6012     9
 4.6062     9
 4.6112    11
 4.6162    10
 4.6212    12
 4.6262    15
 4.6312    14
 4.6362    10
 4.6412     9
 4.6462    11
 4.6512    11
 4.6562    12
 4.6612    10
 4.6662     8
 4.6712    11
 4.6762     9
 4.6812     5
 4.6862     8
 4.6912     9
 4.6962    11
 4.7012    12
 4.7062    13
 4.7112    16
 4.7162    15
 4.7212    10
 4.7262    10
 4.7312    11
 4.7362    10
 4.7412    12
 4.7462    14
 4.7512    14
 4.7562    10
 4.7612     9
 4.7662    10
 4.7712    13
 4.7762    14
 4.7812    11
 4.7862    10
 4.7912    10
 4.7962    11
 4.8012     9
 4.8062    10
 4.8112    10
 4.8162    11
 4.8212    12
 4.8262     8
 4.8312    10
 4.8361    13
 4.8411    15
 4.8461    10
 4.8511    11
 4.8561    13
 4.8611    12
 4.8661    10
 4.8711    12
 4.8761    12
 4.8811     8
 4.8861     8
 4.8911    10
 4.8961    11
 4.9011    12
 4.9061    13
 4.9111    13
 4.9161    14
 4.9211    18
 4.9261    16
 4.9311     7
 4.9361     8
 4.9411    11
 4.9461    12
 4.9511    12
 4.9561    10
 4.9611     8
 4.9661     7
 4.9711     7
 4.9761     9
 4.9811    11
 4.9861    11
 4.9911     9
 4.9961    10
 5.0011    11
 5.0061    10
 5.0111    12
 5.0161    10
 5.0211     8
 5.0261    11
 5.0311     8
 5.0361     6
 5.0411     9
 5.0461     9
 5.0511     8
 5.0561    10
 5.0611    11
 5.0661    10
 5.0711     8
 5.0761     6
 5.0811     9
 5.0861    13
 5.0911    13
 5.0961    10
 5.1011     6
 5.1061    10
 5.1111    14
 5.1161     6
 5.1211     8
 5.1261     6
 5.1311     8
 5.1361     7
 5.1411     8
 5.1461     7
 5.1511     6
 5.1561     8
 5.1611     9
  5.166    10
  5.171     7
  5.176     7
  5.181     9
  5.186     9
  5.191     7
  5.196     6
  5.201     5
  5.206    11
  5.211     7
  5.216     6
  5.221     8
  5.226     7
  5.231    11
  5.236     8
  5.241    13
  5.246     9
  5.251     9
  5.256    11
  5.261     8
  5.266     6
  5.271    10
  5.276     7
  5.281     9
  5.286    10
  5.291     9
  5.296    11
  5.301    11
  5.306     8
  5.311     5
  5.316     4
  5.321     5
  5.326     5
  5.331     6
  5.336     5
  5.341     6
  5.346     6
  5.351     8
  5.356     9
  5.361     9
  5.366     9
  5.371    10
  5.376     3
  5.381     8
  5.386     8
  5.391     4
  5.396     6
  5.401     5
  5.406     8
  5.411     8
  5.416     8
  5.421     8
  5.426     9
  5.431     7
  5.436     7
  5.441     8
  5.446     7
  5.451     5
  5.456     5
  5.461     4
  5.466     7
  5.471    10
  5.476     6
  5.481     6
  5.486     9
  5.491     9
  5.496     6
 5.5009     8
 5.5059     5
 5.5109    10
 5.5159     9
 5.5209    10
 5.5259     6
 5.5309     8
 5.5359    13
 5.5409    11
 5.5459     7
 5.5509     5
 5.5559     8
 5.5609     6
 5.5659     4
 5.5709    12
 5.5759     7
 5.5809     9
 5.5859     9
 5.5909    10
 5.5959     7
 5.6009     7
 5.6059     9
 5.6109     6
 5.6159     9
 5.6209     6
 5.6259     5
 5.6309     6
 5.6359    13
 5.6409    10
 5.6459     9
 5.6509     8
 5.6559    12
 5.6609     7
 5.6659     2
 5.6709     4
 5.6759     8
 5.6809     5
 5.6859    10
 5.6909     7
 5.6959     4
 5.7009     9
 5.7059     7
 5.7109     8
 5.7159     6
 5.7209     8
 5.7259     6
 5.7309     7
 5.7359     6
 5.7409     3
 5.7459     7
 5.7509     3
 5.7559    10
 5.7609     8
 5.7659     8
 5.7709     5
 5.7759     9
 5.7809     4
 5.7859     9
 5.7909     9
 5.7959     4
 5.8009     7
 5.8059     6
 5.8109     6
 5.8159     8
 5.8209     6
 5.8259     0
 5.8309     5
 5.8358     7
 5.8408     5
 5.8458     6
 5.8508     8
 5.8558     5
 5.8608     7
 5.8658     3
 5.8708    11
 5.8758     8
 5.8808     4
 5.8858     3
 5.8908    11
 5.8958     7
 5.9008     6
 5.9058     9
 5.9108     8
 5.9158     5
 5.9208     9
 5.9258     2
 5.9308     7
 5.9358     6
 5.9408     5
 5.9458     9
 5.9508     5
 5.9558     8
 5.9608     4
 5.9658     9
 5.9708     5
 5.9758     0
 5.9808     6
 5.9858     5
 5.9908     7
 5.9958     9
 6.0008     7
 6.0058     4
 6.0108     5
 6.0158     9
 6.0208     4
 6.0258     6
 6.0308     7
 6.0358     1
 6.0408     5
 6.0458     6
 6.0508     4
 6.0558     5
 6.0608     9
 6.0658     5
 6.0708     5
 6.0758     8
 6.0808     5
 6.0858     2
 6.0908     0
 6.0958     4
 6.1008     7
 6.1058     1
 6.1108     4
 6.1158     3
 6.1208     4
 6.1258     8
 6.1308     8
 6.1358     8
 6.1408    10
 6.1458     2
 6.1508     4
 6.1558     5
 6.1608     4
 6.1657     5
 6.1707     2
 6.1757     8
 6.1807     3
 6.1857     7
 6.1907     5
 6.1957     1
 6.2007     5
 6.2057     8
 6.2107     9
 6.2157     7
 6.2207     7
 6.2257     3
 6.2307     7
 6.2357     2
 6.2407    11
 6.2457     8
 6.2507     6
 6.2557     5
 6.2607     5
 6.2657     4
 6.2707     4
 6.2757     6
 6.2807     8
 6.2857     1
 6.2907     4
 6.2957     4
 6.3007     2
 6.3057    10
 6.3107     5
 6.3157    10
 6.3207     7
 6.3257     7
 6.3307     9
 6.3357     1
 6.3407     4
 6.3457    11
 6.3507     6
 6.3557     3
 6.3607    10
 6.3657     7
 6.3707     5
 6.3757     8
 6.3807     7
 6.3857     7
 6.3907     5
 6.3957    12
 6.4007     6
 6.4057     5
 6.4107     3
 6.4157     5
 6.4207     2
 6.4257    11
 6.4307    11
 6.4357     2
 6.4407     7
 6.4457     6
 6.4507     6
 6.4557     6
 6.4607     4
 6.4657     9
 6.4707     3
 6.4757     5
 6.4807     5
 6.4857     4
 6.4907     6
 6.4957     6
 6.5006     3
 6.5056     5
 6.5106     6
 6.5156     8
 6.5206     8
 6.5256     2
 6.5306     6
 6.5356     9
 6.5406     3
 6.5456     3
 6.5506     3
 6.5556     3
 6.5606     2
 6.5656     5
 6.5706     3
 6.5756     3
 6.5806     0
 6.5856     8
 6.5906     4
 6.5956     5
 6.6006     4
 6.6056     2
 6.6106     5
 6.6156     2
 6.6206     5
 6.6256     3
 6.6306     3
 6.6356     6
 6.6406     4
 6.6456     6
 6.6506     8
 6.6556     4
 6.6606     6
 6.6656     0
 6.6706     2
 6.6756     8
 6.6806     5
 6.6856    10
 6.6906     7
 6.6956     4
 6.7006     5
 6.7056     3
 6.7106     3
 6.7156     1
 6.7206     3
 6.7256     1
 6.7306     7
 6.7356     4
 6.7406     3
 6.7456     6
 6.7506     9
 6.7556     3
 6.7606     1
 6.7656     6
 6.7706     3
 6.7756     4
 6.7806     1
 6.7856     5
 6.7906     2
 6.7956     1
 6.8006     5
 6.8056     3
 6.8106     5
 6.8156     4
 6.8206     2
 6.8256     3
 6.8306     2
 6.8355     2
 6.8405     4
 6.8455     1
 6.8505     2
 6.8555     2
 6.8605     2
 6.8655     4
 6.8705     9
 6.8755     7
 6.8805     2
 6.8855     5
 6.8905     5
 6.8955     6
 6.9005     6
 6.9055     1
 6.9105     1
 6.9155     1
 6.9205     4
 6.9255     5
 6.9305     3
 6.9355     2
 6.9405     3
 6.9455     2
 6.9505     2
 6.9555     3
 6.9605     5
 6.9655     6
 6.9705     4
 6.9755     2
 6.9805     2
 6.9855     4
 6.9905     5
 6.9955     6
 7.0005     4
 7.0055     7
 7.0105     5
 7.0155     5
 7.0205     8
 7.0255     1
 7.0305     4
 7.0355     8
 7.0405     3
 7.0455     2
 7.0505     3
 7.0555     3
 7.0605     4
 7.0655     4
 7.0705     4
 7.0755     6
 7.0805     0
 7.0855     1
 7.0905     3
 7.0955     5
 7.1005     2
 7.1055     6
 7.1105     4
 7.1155     4
 7.1205     4
 7.1255     4
 7.1305     4
 7.1355     5
 7.1405     1
 7.1455     1
 7.1505     3
 7.1555     4
 7.1605     1
 7.1654     2
 7.1704     4
 7.1754     2
 7.1804     5
 7.1854     0
 7.1904     1
 7.1954     1
 7.2004     4
 7.2054     0
 7.2104     2
 7.2154     2
 7.2204     2
 7.2254     5
 7.2304     1
 7.2354     2
 7.2404     5
 7.2454     4
 7.2504     3
 7.2554     4
 7.2604     2
 7.2654     3
 7.2704     5
 7.2754     5
 7.2804     7
 7.2854     4
 7.2904     3
 7.2954     3
 7.3004     3
 7.3054     4
 7.3104     1
 7.3154     1
 7.3204     1
 7.3254     3
 7.3304     2
 7.3354     6
 7.3404     3
 7.3454     3
 7.3504     7
 7.3554     1
 7.3604     4
 7.3654     5
 7.3704     1
 7.3754     2
 7.3804     5
 7.3854     2
 7.3904     2
 7.3954     2
 7.4004     3
 7.4054     3
 7.4104     3
 7.4154     4
 7.4204     3
 7.4254     3
 7.4304     2
 7.4354     5
 7.4404     0
 7.4454     0
 7.4504     6
 7.4554     2
 7.4604     4
 7.4654     5
 7.4704     4
 7.4754     2
 7.4804     5
 7.4854     1
 7.4904     3
 7.4954     3
 7.5003     2
 7.5053     5
 7.5103     6
 7.5153     2
 7.5203     2
 7.5253     2
 7.5303     1
 7.5353     2
 7.5403     1
 7.5453     1
 7.5503     3
 7.5553     3
 7.5603     2
 7.5653     2
 7.5703     6
 7.5753     2
 7.5803     4
 7.5853     2
 7.5903     4
 7.5953     4
 7.6003     6
 7.6053     2
 7.6103     3
 7.6153     2
 7.6203     3
 7.6253     0
 7.6303     1
 7.6353     3
 7.6403     1
 7.6453     1
 7.6503     3
 7.6553     2
 7.6603     2
 7.6653     5
 7.6703     1
 7.6753     3
 7.6803     2
 7.6853     3
 7.6903     2
 7.6953     1
 7.7003     2
 7.7053     4
 7.7103     1
 7.7153     0
 7.7203     3
 7.7253     0
 7.7303     1
 7.7353     3
 7.7403     3
 7.7453     0
 7.7503     0
 7.7553     1
 7.7603     2
 7.7653     1
 7.7703     1
 7.7753     0
 7.7803     0
 7.7853     1
 7.7903     4
 7.7953     2
 7.8003     0
 7.8053     1
 7.8103     1
 7.8153     3
 7.8203     0
 7.8253     1
 7.8303     0
 7.8352     3
 7.8402     1
 7.8452     3
 7.8502     2
 7.8552     2
 7.8602     3
 7.8652     4
 7.8702     2
 7.8752     0
 7.8802     1
 7.8852     0
 7.8902     3
 7.8952     2
 7.9002     3
 7.9052     2
 7.9102     1
 7.9152     3
 7.9202     0
 7.9252     3
 7.9302     3
 7.9352     2
 7.9402     4
 7.9452     2
 7.9502     1
 7.9552     1
 7.9602     3
 7.9652     4
 7.9702     1
 7.9752     0
 7.9802     0
 7.9852     1
 7.9902     3
 7.9952     4
 8.0002     3
 8.0052     2
 8.0102     3
 8.0152     2
 8.0202     1
 8.0252     3
 8.0302     1
 8.0352     3
 8.0402     0
 8.0452     5
 8.0502     0
 8.0552     3
 8.0602     3
 8.0652     4
 8.0702     2
 8.0752     2
 8.0802     1
 8.0852     1
 8.0902     1
 8.0952     1
 8.1002     4
 8.1052     0
 8.1102     3
 8.1152     2
 8.1202     1
 8.1252     1
 8.1302     1
 8.1352     1
 8.1402     2
 8.1452     2
 8.1502     0
 8.1552     2
 8.1602     1
 8.1651     2
 8.1701     1
 8.1751     2
 8.1801     1
 8.1851     1
 8.1901     1
 8.1951     2
 8.2001     1
 8.2051     2
 8.2101     1
 8.2151     2
 8.2201     0
 8.2251     0
 8.2301     1
 8.2351     1
 8.2401     0
 8.2451     1
 8.2501     4
 8.2551     2
 8.2601     3
 8.2651     1
 8.2701     7
 8.2751     1
 8.2801     1
 8.2851     2
 8.2901     1
 8.2951     0
 8.3001     3
 8.3051     2
 8.3101     1
 8.3151     3
 8.3201     1
 8.3251     1
 8.3301     1
 8.3351     2
 8.3401     2
 8.3451     1
 8.3501     1
 8.3551     2
 8.3601     1
 8.3651     0
 8.3701     2
 8.3751     1
 8.3801     3
 8.3851     0
 8.3901     0
 8.3951     2
 8.4001     1
 8.4051     4
 8.4101     1
 8.4151     0
 8.4201     2
 8.4251     0
 8.4301     4
 8.4351     1
 8.4401     3
 8.4451     1
 8.4501     0
 8.4551     1
 8.4601     0
 8.4651     0
 8.4701     3
 8.4751     1
 8.4801     0
 8.4851     0
 8.4901     3
 8.4951     2
    8.5     2
  8.505     2
   8.51     1
  8.515     2
   8.52     1
  8.525     1
   8.53     1
  8.535     3
   8.54     2
  8.545     1
   8.55     4
  8.555     2
   8.56     3
  8.565     1
   8.57     0
  8.575     1
   8.58     1
  8.585     3
   8.59     0
  8.595     1
    8.6     0
  8.605     0
   8.61     0
  8.615     0
   8.62     1
  8.625     1
   8.63     3
  8.635     1
   8.64     0
  8.645     0
   8.65     0
  8.655     2
   8.66     0
  8.665     0
   8.67     1
  8.675     2
   8.68     0
  8.685     0
   8.69     0
  8.695     2
    8.7     1
  8.705     2
   8.71     0
  8.715     0
   8.72     1
  8.725     1
   8.73     0
  8.735     1
   8.74     2
  8.745     0
   8.75     1
  8.755     1
   8.76     1
  8.765     1
   8.77     1
  8.775     0
   8.78     0
  8.785     0
   8.79     1
  8.795     0
    8.8     1
  8.805     1
   8.81     2
  8.815     1
   8.82     1
  8.825     0
   8.83     0
 8.8349     1
 8.8399     2
 8.8449     3
 8.8499     1
 8.8549     2
 8.8599     2
 8.8649     0
 8.8699     0
 8.8749     0
 8.8799     2
 8.8849     2
 8.8899     0
 8.8949     1
 8.8999     0
 8.9049     1
 8.9099     2
 8.9149     1
 8.9199     3
 8.9249     1
 8.9299     1
 8.9349     0
 8.9399     0
 8.9449     0
 8.9499     0
 8.9549     0
 8.9599     1
 8.9649     0
 8.9699     0
 8.9749     1
 8.9799     1
 8.9849     0
 8.9899     0
 8.9949     1
 8.9999     0
 9.0049     1
 9.0099     2
 9.0149     0
 9.0199     3
 9.0249     1
 9.0299     1
 9.0349     0
 9.0399     1
 9.0449     0
 9.0499     1
 9.0549     1
 9.0599     2
 9.0649     1
 9.0699     0
 9.0749     1
 9.0799     1
 9.0849     0
 9.0899     2
 9.0949     0
 9.0999     0
 9.1049     2
 9.1099     0
 9.1149     2
 9.1199     0
 9.1249     1
 9.1299     0
 9.1349     2
 9.1399     1
 9.1449     0
 9.1499     1
 9.1549     1
 9.1599     0
 9.1648     0
 9.1698     0
 9.1748     1
 9.1798     0
 9.1848     0
 9.1898     0
 9.1948     0
 9.1998     0
 9.2048     2
 9.2098     0
 9.2148     2
 9.2198     1
 9.2248     0
 9.2298     0
 9.2348     0
 9.2398     0
 9.2448     2
 9.2498     0
 9.2548     0
 9.2598     1
 9.2648     1
 9.2698     0
 9.2748     2
 9.2798     1
 9.2848     1
 9.2898     2
 9.2948     1
 9.2998     1
 9.3048     1
 9.3098     0
 9.3148     1
 9.3198     1
 9.3248     0
 9.3298     0
 9.3348     0
 9.3398     1
 9.3448     0
 9.3498     0
 9.3548     2
 9.3598     0
 9.3648     0
 9.3698     2
 9.3748     0
 9.3798     0
 9.3848     0
 9.3898     1
 9.3948     0
 9.3998     1
 9.4048     0
 9.4098     0
 9.4148     0
 9.4198     1
 9.4248     0
 9.4298     0
 9.4348     0
 9.4398     0
 9.4448     0
 9.4498     0
 9.4548     1
 9.4598     0
 9.4648     0
 9.4698     0
 9.4748     0
 9.4798     1
 9.4848     1
 9.4898     0
 9.4948     1
 9.4997     0
 9.5047     0
 9.5097     0
 9.5147     1
 9.5197     1
 9.5247     0
 9.5297     0
 9.5347     0
 9.5397     0
 9.5447     0
 9.5497     0
 9.5547     0
 9.5597     1
 9.5647     1
 9.5697     0
 9.5747     0
 9.5797     1
 9.5847     0
 9.5897     1
 9.5947     0
 9.5997     0
 9.6047     0
 9.6097     0
 9.6147     0
 9.6197     1
 9.6247     0
 9.6297     0
 9.6347     1
 9.6397     0
 9.6447     0
 9.6497     0
 9.6547     0
 9.6597     0
 9.6647     0
 9.6697     0
 9.6747     2
 9.6797     0
 9.6847     0
 9.6897     0
 9.6947     0
 9.6997     0
 9.7047     0
 9.7097     0
 9.7147     0
 9.7197     1
 9.7247     0
 9.7297     0
 9.7347     0
 9.7397     0
 9.7447     0
 9.7497     0
 9.7547     0
 9.7597     0
 9.7647     0
 9.7697     0
 9.7747     0
 9.7797     0
 9.7847     1
 9.7897     0
 9.7947     0
 9.7997     0
 9.8047     0
 9.8097     0
 9.8147     0
