Bruker Nano GmbH Berlin, Germany
Esprit 2.x

Date: 8/21/2023 1:32:44 PM
Real time: 154666
Life time: 153653
Pulse density: 6234

Primary energy: 10
Beam current: -1
Take off angle: 35
Tilt angle: 0
Azimut angle: 45

Detector type: Custom type
Window type: slew AP3.3
Detector thickness: 0.45
Si dead layer:0

Calibration, lin.: 4.998
Calibration, abs.: -477.257
Mn FWHM: 124.4
Fano factor: 0.109
Channels: 2463

Energy Counts
-0.4773     0
-0.4723     0
-0.4673     0
-0.4623     0
-0.4573     0
-0.4523     0
-0.4473     0
-0.4423     0
-0.4373     0
-0.4323     0
-0.4273     0
-0.4223     0
-0.4173     0
-0.4123     0
-0.4073     0
-0.4023     0
-0.3973     0
-0.3923     0
-0.3873     0
-0.3823     0
-0.3773     0
-0.3723     0
-0.3673     0
-0.3623     0
-0.3573     0
-0.3523     0
-0.3473     0
-0.3423     0
-0.3373     0
-0.3323     0
-0.3273     0
-0.3223     0
-0.3173     0
-0.3123     0
-0.3073     0
-0.3023     0
-0.2973     0
-0.2923     0
-0.2873     0
-0.2823     0
-0.2773     0
-0.2723     0
-0.2673     0
-0.2623     0
-0.2573     0
-0.2523     0
-0.2473     0
-0.2423     0
-0.2373     0
-0.2323     0
-0.2273     0
-0.2223     0
-0.2173     0
-0.2123     0
-0.2073     0
-0.2023     0
-0.1973     0
-0.1923     0
-0.1873     0
-0.1823     0
-0.1773     0
-0.1723     0
-0.1673     0
-0.1624     0
-0.1574     0
-0.1524     0
-0.1474     0
-0.1424     0
-0.1374     0
-0.1324     0
-0.1274     0
-0.1224     0
-0.1174     0
-0.1124     0
-0.1074     0
-0.1024     0
-0.0974     0
-0.0924     0
-0.0874     0
-0.0824     0
-0.0774     2
-0.0724     3
-0.0674    17
-0.0624    39
-0.0574   107
-0.0524   242
-0.0474   569
-0.0424  1159
-0.0374  2254
-0.0324  4084
-0.0274  6523
-0.0224  9903
-0.0174 13661
-0.0124 17653
-0.0074 20573
-0.0024 22458
 0.0026 22318
 0.0076 20729
 0.0126 17448
 0.0176 13796
 0.0226  9980
 0.0276  6559
 0.0326  4120
 0.0376  2331
 0.0426  1239
 0.0476   567
 0.0526   248
 0.0576   107
 0.0626    47
 0.0676    14
 0.0726     7
 0.0776     5
 0.0826     2
 0.0876     1
 0.0926     0
 0.0976     1
 0.1026     0
 0.1076     0
 0.1126     0
 0.1176     0
 0.1226    26
 0.1276   185
 0.1326   313
 0.1376   276
 0.1426   241
 0.1476   218
 0.1526   215
 0.1576   193
 0.1626   166
 0.1675   182
 0.1725   185
 0.1775   178
 0.1825   174
 0.1875   164
 0.1925   157
 0.1975   153
 0.2025   167
 0.2075   189
 0.2125   223
 0.2175   257
 0.2225   329
 0.2275   442
 0.2325   556
 0.2375   722
 0.2425   971
 0.2475  1238
 0.2525  1492
 0.2575  1784
 0.2625  2128
 0.2675  2402
 0.2725  2540
 0.2775  2512
 0.2825  2422
 0.2875  2289
 0.2925  2009
 0.2975  1661
 0.3025  1334
 0.3075  1036
 0.3125   760
 0.3175   549
 0.3225   421
 0.3275   342
 0.3325   269
 0.3375   228
 0.3425   218
 0.3475   234
 0.3525   240
 0.3575   250
 0.3625   273
 0.3675   290
 0.3725   288
 0.3775   294
 0.3825   324
 0.3875   348
 0.3925   358
 0.3975   391
 0.4025   420
 0.4075   418
 0.4125   426
 0.4175   462
 0.4225   524
 0.4275   585
 0.4325   608
 0.4375   690
 0.4425   788
 0.4475   961
 0.4525  1168
 0.4575  1496
 0.4625  1997
 0.4675  2698
 0.4725  3721
 0.4775  5081
 0.4825  6789
 0.4875  9166
 0.4925 11979
 0.4975 15180
 0.5024 18489
 0.5074 21679
 0.5124 24750
 0.5174 26595
 0.5224 27976
 0.5274 27899
 0.5324 27223
 0.5374 24833
 0.5424 21659
 0.5474 18209
 0.5524 14442
 0.5574 11260
 0.5624  8127
 0.5674  5784
 0.5724  4042
 0.5774  2639
 0.5824  1751
 0.5874  1136
 0.5924   724
 0.5974   549
 0.6024   356
 0.6074   344
 0.6124   323
 0.6174   292
 0.6224   302
 0.6274   267
 0.6324   295
 0.6374   285
 0.6424   304
 0.6474   303
 0.6524   280
 0.6574   296
 0.6624   301
 0.6674   339
 0.6724   336
 0.6774   333
 0.6824   391
 0.6874   392
 0.6924   419
 0.6974   449
 0.7024   463
 0.7074   445
 0.7124   416
 0.7174   426
 0.7224   464
 0.7274   398
 0.7324   414
 0.7374   397
 0.7424   343
 0.7474   388
 0.7524   308
 0.7574   306
 0.7624   348
 0.7674   324
 0.7724   314
 0.7774   333
 0.7824   311
 0.7874   337
 0.7924   321
 0.7974   305
 0.8024   307
 0.8074   353
 0.8124   349
 0.8174   340
 0.8224   339
 0.8274   322
 0.8324   326
 0.8373   315
 0.8423   346
 0.8473   356
 0.8523   367
 0.8573   351
 0.8623   333
 0.8673   378
 0.8723   370
 0.8773   343
 0.8823   356
 0.8873   355
 0.8923   370
 0.8973   366
 0.9023   354
 0.9073   353
 0.9123   361
 0.9173   364
 0.9223   402
 0.9273   398
 0.9323   412
 0.9373   402
 0.9423   378
 0.9473   389
 0.9523   445
 0.9573   473
 0.9623   496
 0.9673   467
 0.9723   550
 0.9773   630
 0.9823   751
 0.9873   944
 0.9923  1158
 0.9973  1401
 1.0023  1708
 1.0073  2102
 1.0123  2555
 1.0173  3007
 1.0223  3459
 1.0273  3888
 1.0323  4231
 1.0373  4528
 1.0423  4743
 1.0473  4760
 1.0523  4598
 1.0573  4327
 1.0623  3998
 1.0673  3582
 1.0723  3138
 1.0773  2723
 1.0823  2271
 1.0873  1826
 1.0923  1450
 1.0973  1163
 1.1023   941
 1.1073   755
 1.1123   618
 1.1173   535
 1.1223   484
 1.1273   438
 1.1323   410
 1.1373   386
 1.1423   401
 1.1473   367
 1.1523   362
 1.1573   390
 1.1623   357
 1.1672   404
 1.1722   375
 1.1772   343
 1.1822   325
 1.1872   386
 1.1922   356
 1.1972   391
 1.2022   358
 1.2072   398
 1.2122   409
 1.2172   399
 1.2222   405
 1.2272   402
 1.2322   436
 1.2372   454
 1.2422   444
 1.2472   433
 1.2522   433
 1.2572   484
 1.2622   452
 1.2672   438
 1.2722   432
 1.2772   415
 1.2822   426
 1.2872   421
 1.2922   390
 1.2972   398
 1.3022   412
 1.3072   391
 1.3122   390
 1.3172   387
 1.3222   397
 1.3272   408
 1.3322   355
 1.3372   375
 1.3422   376
 1.3472   415
 1.3522   376
 1.3572   371
 1.3622   372
 1.3672   391
 1.3722   389
 1.3772   421
 1.3822   380
 1.3872   382
 1.3922   389
 1.3972   441
 1.4022   508
 1.4072   553
 1.4122   601
 1.4172   676
 1.4222   836
 1.4272  1086
 1.4322  1350
 1.4372  1671
 1.4422  2019
 1.4472  2391
 1.4522  2828
 1.4572  3442
 1.4622  3977
 1.4672  4508
 1.4722  4972
 1.4772  5467
 1.4822  5703
 1.4872  5828
 1.4922  5789
 1.4972  5763
 1.5021  5464
 1.5071  5074
 1.5121  4655
 1.5171  4179
 1.5221  3673
 1.5271  3152
 1.5321  2655
 1.5371  2259
 1.5421  1837
 1.5471  1499
 1.5521  1245
 1.5571  1019
 1.5621   887
 1.5671   771
 1.5721   676
 1.5771   581
 1.5821   570
 1.5871   489
 1.5921   455
 1.5971   467
 1.6021   413
 1.6071   393
 1.6121   391
 1.6171   384
 1.6221   368
 1.6271   381
 1.6321   363
 1.6371   419
 1.6421   456
 1.6471   518
 1.6521   638
 1.6571   787
 1.6621   995
 1.6671  1301
 1.6721  1659
 1.6771  2099
 1.6821  2749
 1.6871  3559
 1.6921  4552
 1.6971  5545
 1.7021  6690
 1.7071  8076
 1.7121  9250
 1.7171 10493
 1.7221 11634
 1.7271 12709
 1.7321 13484
 1.7371 14021
 1.7421 14224
 1.7471 14045
 1.7521 13707
 1.7571 12987
 1.7621 12192
 1.7671 10993
 1.7721  9630
 1.7771  8388
 1.7821  7207
 1.7871  6011
 1.7921  4895
 1.7971  4027
 1.8021  3292
 1.8071  2723
 1.8121  2213
 1.8171  1725
 1.8221  1470
 1.8271  1253
 1.8321  1060
  1.837   977
  1.842   878
  1.847   800
  1.852   744
  1.857   681
  1.862   604
  1.867   550
  1.872   531
  1.877   485
  1.882   402
  1.887   360
  1.892   343
  1.897   336
  1.902   326
  1.907   282
  1.912   250
  1.917   245
  1.922   236
  1.927   221
  1.932   214
  1.937   195
  1.942   197
  1.947   203
  1.952   208
  1.957   208
  1.962   215
  1.967   222
  1.972   208
  1.977   202
  1.982   204
  1.987   222
  1.992   225
  1.997   209
  2.002   208
  2.007   213
  2.012   210
  2.017   212
  2.022   226
  2.027   228
  2.032   215
  2.037   221
  2.042   217
  2.047   217
  2.052   204
  2.057   202
  2.062   216
  2.067   214
  2.072   227
  2.077   215
  2.082   182
  2.087   186
  2.092   196
  2.097   198
  2.102   192
  2.107   186
  2.112   201
  2.117   217
  2.122   217
  2.127   193
  2.132   180
  2.137   194
  2.142   177
  2.147   169
  2.152   187
  2.157   186
  2.162   188
 2.1669   193
 2.1719   196
 2.1769   203
 2.1819   205
 2.1869   191
 2.1919   167
 2.1969   163
 2.2019   174
 2.2069   176
 2.2119   165
 2.2169   165
 2.2219   182
 2.2269   189
 2.2319   187
 2.2369   186
 2.2419   183
 2.2469   180
 2.2519   180
 2.2569   186
 2.2619   190
 2.2669   191
 2.2719   190
 2.2769   188
 2.2819   188
 2.2869   186
 2.2919   181
 2.2969   179
 2.3019   179
 2.3069   180
 2.3119   182
 2.3169   179
 2.3219   173
 2.3269   171
 2.3319   175
 2.3369   185
 2.3419   193
 2.3469   189
 2.3519   184
 2.3569   179
 2.3619   171
 2.3669   167
 2.3719   170
 2.3769   172
 2.3819   171
 2.3869   169
 2.3919   170
 2.3969   168
 2.4019   164
 2.4069   171
 2.4119   177
 2.4169   174
 2.4219   173
 2.4269   174
 2.4319   172
 2.4369   167
 2.4419   166
 2.4469   171
 2.4519   169
 2.4569   160
 2.4619   154
 2.4669   158
 2.4719   160
 2.4769   155
 2.4819   153
 2.4869   156
 2.4919   158
 2.4969   159
 2.5018   164
 2.5068   163
 2.5118   152
 2.5168   146
 2.5218   154
 2.5268   149
 2.5318   154
 2.5368   156
 2.5418   158
 2.5468   164
 2.5518   180
 2.5568   147
 2.5618   158
 2.5668   162
 2.5718   169
 2.5768   161
 2.5818   172
 2.5868   156
 2.5918   148
 2.5968   154
 2.6018   165
 2.6068   152
 2.6118   150
 2.6168   154
 2.6218   163
 2.6268   179
 2.6318   172
 2.6368   142
 2.6418   170
 2.6468   157
 2.6518   172
 2.6568   166
 2.6618   158
 2.6668   170
 2.6718   146
 2.6768   144
 2.6818   157
 2.6868   145
 2.6918   159
 2.6968   159
 2.7018   147
 2.7068   130
 2.7118   150
 2.7168   141
 2.7218   129
 2.7268   142
 2.7318   130
 2.7368   116
 2.7418   145
 2.7468   160
 2.7518   141
 2.7568   148
 2.7618   145
 2.7668   155
 2.7718   143
 2.7768   128
 2.7818   150
 2.7868   131
 2.7918   117
 2.7968   130
 2.8018   153
 2.8068   139
 2.8118   150
 2.8168   148
 2.8218   146
 2.8268   140
 2.8318   136
 2.8367   138
 2.8417   135
 2.8467   131
 2.8517   136
 2.8567   148
 2.8617   132
 2.8667   121
 2.8717   144
 2.8767   139
 2.8817   121
 2.8867   136
 2.8917   132
 2.8967   123
 2.9017   140
 2.9067   157
 2.9117   147
 2.9167   138
 2.9217   139
 2.9267   134
 2.9317   132
 2.9367   126
 2.9417   135
 2.9467   128
 2.9517   129
 2.9567   130
 2.9617   130
 2.9667   142
 2.9717   121
 2.9767   120
 2.9817   122
 2.9867   123
 2.9917   119
 2.9967   116
 3.0017   132
 3.0067   137
 3.0117   133
 3.0167   133
 3.0217   150
 3.0267   129
 3.0317   133
 3.0367   116
 3.0417   131
 3.0467   129
 3.0517   128
 3.0567   106
 3.0617   123
 3.0667   132
 3.0717   117
 3.0767   109
 3.0817   124
 3.0867   127
 3.0917   119
 3.0967   138
 3.1017   108
 3.1067   126
 3.1117   128
 3.1167   119
 3.1217   106
 3.1267   126
 3.1317   104
 3.1367   111
 3.1417   132
 3.1467   120
 3.1517   107
 3.1567   108
 3.1617   107
 3.1666   107
 3.1716   113
 3.1766   133
 3.1816   102
 3.1866   117
 3.1916   117
 3.1966   114
 3.2016   127
 3.2066   119
 3.2116   107
 3.2166   115
 3.2216   129
 3.2266   120
 3.2316   132
 3.2366   127
 3.2416   122
 3.2466   113
 3.2516   128
 3.2566   138
 3.2616   149
 3.2666   149
 3.2716   134
 3.2766   137
 3.2816   156
 3.2866   154
 3.2916   147
 3.2966   143
 3.3016   165
 3.3066   189
 3.3116   160
 3.3166   151
 3.3216   175
 3.3266   167
 3.3316   165
 3.3366   135
 3.3416   139
 3.3466   149
 3.3516   127
 3.3566   142
 3.3616   135
 3.3666   121
 3.3716   130
 3.3766   132
 3.3816   111
 3.3866   131
 3.3916    91
 3.3966    99
 3.4016   108
 3.4066   113
 3.4116   105
 3.4166   106
 3.4216    94
 3.4266   104
 3.4316   101
 3.4366    98
 3.4416   117
 3.4466   125
 3.4516    86
 3.4566   105
 3.4616   112
 3.4666    97
 3.4716    83
 3.4766   108
 3.4816   115
 3.4866    92
 3.4916    90
 3.4966    94
 3.5015    98
 3.5065    99
 3.5115   107
 3.5165   104
 3.5215   101
 3.5265    94
 3.5315   110
 3.5365   100
 3.5415   108
 3.5465   100
 3.5515   101
 3.5565   108
 3.5615   102
 3.5665   119
 3.5715   104
 3.5765    82
 3.5815    98
 3.5865    86
 3.5915   105
 3.5965    96
 3.6015   103
 3.6065   100
 3.6115   113
 3.6165   114
 3.6215   119
 3.6265   110
 3.6315   122
 3.6365   112
 3.6415   130
 3.6465   117
 3.6515   125
 3.6565   140
 3.6615   102
 3.6665   138
 3.6715   149
 3.6765   141
 3.6815   147
 3.6865   142
 3.6915   143
 3.6965   141
 3.7015   164
 3.7065   145
 3.7115   136
 3.7165   117
 3.7215   166
 3.7265   139
 3.7315   131
 3.7365   137
 3.7415   111
 3.7465   146
 3.7515   103
 3.7565    94
 3.7615   117
 3.7665    87
 3.7715    77
 3.7765    82
 3.7815    96
 3.7865    97
 3.7915    81
 3.7965    87
 3.8015    87
 3.8065    74
 3.8115    88
 3.8165    90
 3.8215    78
 3.8265    74
 3.8315    83
 3.8364    78
 3.8414    78
 3.8464    86
 3.8514    76
 3.8564    66
 3.8614    78
 3.8664    96
 3.8714    95
 3.8764    81
 3.8814    76
 3.8864    77
 3.8914    87
 3.8964    91
 3.9014    76
 3.9064    88
 3.9114    66
 3.9164    72
 3.9214    78
 3.9264    69
 3.9314    78
 3.9364    81
 3.9414    81
 3.9464    77
 3.9514    85
 3.9564    83
 3.9614   104
 3.9664    76
 3.9714    88
 3.9764    85
 3.9814    85
 3.9864    89
 3.9914    89
 3.9964    91
 4.0014    82
 4.0064   101
 4.0114    83
 4.0164    69
 4.0214    81
 4.0264    91
 4.0314    83
 4.0364    79
 4.0414    86
 4.0464    79
 4.0514    74
 4.0564    77
 4.0614    68
 4.0664    81
 4.0714    74
 4.0764    90
 4.0814    96
 4.0864    85
 4.0914    76
 4.0964    68
 4.1014    72
 4.1064    82
 4.1114    75
 4.1164    61
 4.1214    82
 4.1264    71
 4.1314    61
 4.1364    65
 4.1414    66
 4.1464    68
 4.1514    68
 4.1564    66
 4.1614    75
 4.1663    72
 4.1713    72
 4.1763    71
 4.1813    69
 4.1863    67
 4.1913    67
 4.1963    68
 4.2013    71
 4.2063    77
 4.2113    70
 4.2163    66
 4.2213    76
 4.2263    72
 4.2313    79
 4.2363    67
 4.2413    63
 4.2463    67
 4.2513    73
 4.2563    60
 4.2613    56
 4.2663    77
 4.2713    70
 4.2763    61
 4.2813    66
 4.2863    61
 4.2913    62
 4.2963    70
 4.3013    68
 4.3063    64
 4.3113    58
 4.3163    52
 4.3213    66
 4.3263    63
 4.3313    70
 4.3363    60
 4.3413    59
 4.3463    75
 4.3513    60
 4.3563    67
 4.3613    78
 4.3663    61
 4.3713    64
 4.3763    70
 4.3813    62
 4.3863    59
 4.3913    59
 4.3963    62
 4.4013    64
 4.4063    63
 4.4113    54
 4.4163    51
 4.4213    56
 4.4263    66
 4.4313    62
 4.4363    75
 4.4413    71
 4.4463    58
 4.4513    65
 4.4563    71
 4.4613    70
 4.4663    62
 4.4713    66
 4.4763    65
 4.4813    66
 4.4863    68
 4.4913    64
 4.4963    63
 4.5012    57
 4.5062    53
 4.5112    61
 4.5162    73
 4.5212    69
 4.5262    80
 4.5312    70
 4.5362    54
 4.5412    60
 4.5462    60
 4.5512    60
 4.5562    64
 4.5612    64
 4.5662    64
 4.5712    62
 4.5762    61
 4.5812    65
 4.5862    65
 4.5912    54
 4.5962    53
 4.6012    57
 4.6062    61
 4.6112    57
 4.6162    58
 4.6212    66
 4.6262    58
 4.6312    55
 4.6362    61
 4.6412    65
 4.6462    53
 4.6512    42
 4.6562    46
 4.6612    58
 4.6662    58
 4.6712    59
 4.6762    66
 4.6812    60
 4.6862    58
 4.6912    63
 4.6962    55
 4.7012    49
 4.7062    54
 4.7112    59
 4.7162    58
 4.7212    56
 4.7262    55
 4.7312    56
 4.7362    54
 4.7412    61
 4.7462    66
 4.7512    55
 4.7562    49
 4.7612    53
 4.7662    55
 4.7712    56
 4.7762    54
 4.7812    50
 4.7862    56
 4.7912    56
 4.7962    58
 4.8012    59
 4.8062    58
 4.8112    57
 4.8162    52
 4.8212    51
 4.8262    48
 4.8312    53
 4.8361    60
 4.8411    53
 4.8461    54
 4.8511    62
 4.8561    52
 4.8611    49
 4.8661    58
 4.8711    52
 4.8761    48
 4.8811    56
 4.8861    47
 4.8911    47
 4.8961    50
 4.9011    51
 4.9061    55
 4.9111    49
 4.9161    42
 4.9211    44
 4.9261    49
 4.9311    49
 4.9361    52
 4.9411    54
 4.9461    55
 4.9511    57
 4.9561    52
 4.9611    53
 4.9661    57
 4.9711    63
 4.9761    66
 4.9811    52
 4.9861    45
 4.9911    48
 4.9961    48
 5.0011    47
 5.0061    49
 5.0111    44
 5.0161    50
 5.0211    53
 5.0261    47
 5.0311    44
 5.0361    41
 5.0411    45
 5.0461    56
 5.0511    54
 5.0561    50
 5.0611    50
 5.0661    47
 5.0711    45
 5.0761    49
 5.0811    52
 5.0861    40
 5.0911    44
 5.0961    49
 5.1011    48
 5.1061    41
 5.1111    35
 5.1161    45
 5.1211    47
 5.1261    52
 5.1311    58
 5.1361    45
 5.1411    45
 5.1461    39
 5.1511    46
 5.1561    44
 5.1611    41
  5.166    36
  5.171    46
  5.176    47
  5.181    48
  5.186    44
  5.191    42
  5.196    36
  5.201    40
  5.206    46
  5.211    52
  5.216    51
  5.221    47
  5.226    41
  5.231    47
  5.236    51
  5.241    45
  5.246    42
  5.251    39
  5.256    49
  5.261    60
  5.266    50
  5.271    47
  5.276    34
  5.281    37
  5.286    39
  5.291    43
  5.296    37
  5.301    44
  5.306    41
  5.311    40
  5.316    32
  5.321    36
  5.326    51
  5.331    42
  5.336    43
  5.341    45
  5.346    38
  5.351    43
  5.356    42
  5.361    33
  5.366    33
  5.371    41
  5.376    30
  5.381    40
  5.386    37
  5.391    33
  5.396    36
  5.401    46
  5.406    45
  5.411    41
  5.416    36
  5.421    34
  5.426    39
  5.431    38
  5.436    35
  5.441    47
  5.446    37
  5.451    36
  5.456    40
  5.461    48
  5.466    39
  5.471    32
  5.476    28
  5.481    36
  5.486    35
  5.491    41
  5.496    38
 5.5009    37
 5.5059    39
 5.5109    35
 5.5159    38
 5.5209    30
 5.5259    33
 5.5309    43
 5.5359    38
 5.5409    36
 5.5459    32
 5.5509    43
 5.5559    41
 5.5609    41
 5.5659    37
 5.5709    51
 5.5759    43
 5.5809    41
 5.5859    40
 5.5909    36
 5.5959    31
 5.6009    42
 5.6059    31
 5.6109    32
 5.6159    36
 5.6209    37
 5.6259    29
 5.6309    43
 5.6359    48
 5.6409    38
 5.6459    37
 5.6509    38
 5.6559    42
 5.6609    41
 5.6659    31
 5.6709    32
 5.6759    30
 5.6809    27
 5.6859    45
 5.6909    31
 5.6959    35
 5.7009    39
 5.7059    37
 5.7109    36
 5.7159    35
 5.7209    44
 5.7259    38
 5.7309    29
 5.7359    25
 5.7409    40
 5.7459    30
 5.7509    39
 5.7559    32
 5.7609    27
 5.7659    37
 5.7709    34
 5.7759    30
 5.7809    34
 5.7859    36
 5.7909    30
 5.7959    16
 5.8009    28
 5.8059    41
 5.8109    34
 5.8159    40
 5.8209    54
 5.8259    38
 5.8309    25
 5.8358    34
 5.8408    29
 5.8458    40
 5.8508    30
 5.8558    32
 5.8608    28
 5.8658    35
 5.8708    36
 5.8758    33
 5.8808    43
 5.8858    37
 5.8908    37
 5.8958    40
 5.9008    24
 5.9058    28
 5.9108    41
 5.9158    37
 5.9208    28
 5.9258    32
 5.9308    33
 5.9358    30
 5.9408    34
 5.9458    20
 5.9508    24
 5.9558    21
 5.9608    29
 5.9658    33
 5.9708    28
 5.9758    26
 5.9808    38
 5.9858    21
 5.9908    26
 5.9958    25
 6.0008    32
 6.0058    29
 6.0108    31
 6.0158    28
 6.0208    21
 6.0258    30
 6.0308    35
 6.0358    27
 6.0408    26
 6.0458    25
 6.0508    31
 6.0558    29
 6.0608    34
 6.0658    23
 6.0708    26
 6.0758    32
 6.0808    23
 6.0858    24
 6.0908    23
 6.0958    25
 6.1008    30
 6.1058    40
 6.1108    23
 6.1158    39
 6.1208    31
 6.1258    23
 6.1308    15
 6.1358    29
 6.1408    30
 6.1458    30
 6.1508    36
 6.1558    28
 6.1608    20
 6.1657    26
 6.1707    23
 6.1757    27
 6.1807    30
 6.1857    38
 6.1907    24
 6.1957    28
 6.2007    24
 6.2057    40
 6.2107    24
 6.2157    27
 6.2207    26
 6.2257    29
 6.2307    23
 6.2357    22
 6.2407    32
 6.2457    23
 6.2507    32
 6.2557    24
 6.2607    28
 6.2657    31
 6.2707    20
 6.2757    25
 6.2807    27
 6.2857    35
 6.2907    34
 6.2957    29
 6.3007    27
 6.3057    22
 6.3107    23
 6.3157    29
 6.3207    23
 6.3257    38
 6.3307    29
 6.3357    30
 6.3407    24
 6.3457    32
 6.3507    27
 6.3557    32
 6.3607    35
 6.3657    36
 6.3707    35
 6.3757    34
 6.3807    41
 6.3857    35
 6.3907    37
 6.3957    36
 6.4007    38
 6.4057    38
 6.4107    47
 6.4157    35
 6.4207    34
 6.4257    33
 6.4307    32
 6.4357    25
 6.4407    35
 6.4457    36
 6.4507    43
 6.4557    31
 6.4607    21
 6.4657    36
 6.4707    31
 6.4757    31
 6.4807    29
 6.4857    23
 6.4907    27
 6.4957    19
 6.5006    22
 6.5056    24
 6.5106    17
 6.5156    23
 6.5206    23
 6.5256    19
 6.5306    17
 6.5356    28
 6.5406    16
 6.5456    30
 6.5506    19
 6.5556    27
 6.5606    25
 6.5656    23
 6.5706    16
 6.5756    26
 6.5806    27
 6.5856    20
 6.5906    27
 6.5956    17
 6.6006    13
 6.6056    17
 6.6106    23
 6.6156    24
 6.6206    24
 6.6256    19
 6.6306    12
 6.6356    19
 6.6406    15
 6.6456    19
 6.6506    18
 6.6556    25
 6.6606    26
 6.6656    24
 6.6706    13
 6.6756    14
 6.6806    15
 6.6856    26
 6.6906    15
 6.6956    14
 6.7006    14
 6.7056    19
 6.7106    20
 6.7156    14
 6.7206    26
 6.7256    19
 6.7306    29
 6.7356    22
 6.7406    18
 6.7456    22
 6.7506    11
 6.7556    24
 6.7606    18
 6.7656    20
 6.7706    18
 6.7756    15
 6.7806    17
 6.7856    17
 6.7906    23
 6.7956    24
 6.8006    20
 6.8056    25
 6.8106    16
 6.8156    14
 6.8206    20
 6.8256    22
 6.8306    16
 6.8355    15
 6.8405    16
 6.8455    13
 6.8505    21
 6.8555    17
 6.8605    24
 6.8655    17
 6.8705    19
 6.8755    18
 6.8805    15
 6.8855    15
 6.8905    14
 6.8955    18
 6.9005    23
 6.9055    14
 6.9105    24
 6.9155    19
 6.9205    13
 6.9255    18
 6.9305    18
 6.9355    18
 6.9405    11
 6.9455    13
 6.9505    19
 6.9555    12
 6.9605    12
 6.9655    18
 6.9705    18
 6.9755    21
 6.9805    14
 6.9855    23
 6.9905    22
 6.9955    18
 7.0005    22
 7.0055    13
 7.0105    13
 7.0155    18
 7.0205    15
 7.0255    11
 7.0305    14
 7.0355    19
 7.0405    19
 7.0455    18
 7.0505    19
 7.0555    20
 7.0605    13
 7.0655    14
 7.0705    10
 7.0755    13
 7.0805    14
 7.0855    19
 7.0905    18
 7.0955    10
 7.1005    19
 7.1055    15
 7.1105    18
 7.1155    13
 7.1205    10
 7.1255    14
 7.1305    19
 7.1355    17
 7.1405    24
 7.1455    15
 7.1505    18
 7.1555    16
 7.1605    13
 7.1654     8
 7.1704    15
 7.1754    17
 7.1804    18
 7.1854    12
 7.1904    18
 7.1954    13
 7.2004    13
 7.2054     8
 7.2104    13
 7.2154    15
 7.2204    14
 7.2254    12
 7.2304    10
 7.2354    12
 7.2404    20
 7.2454    15
 7.2504    12
 7.2554     8
 7.2604    17
 7.2654     8
 7.2704    15
 7.2754    15
 7.2804    12
 7.2854    15
 7.2904     7
 7.2954    20
 7.3004    17
 7.3054    10
 7.3104    13
 7.3154    14
 7.3204    21
 7.3254     8
 7.3304     7
 7.3354    16
 7.3404    15
 7.3454    13
 7.3504    12
 7.3554    15
 7.3604     9
 7.3654    10
 7.3704     8
 7.3754    12
 7.3804     9
 7.3854    19
 7.3904     7
 7.3954    14
 7.4004     7
 7.4054    11
 7.4104     8
 7.4154    11
 7.4204     9
 7.4254    19
 7.4304     8
 7.4354    12
 7.4404    12
 7.4454    13
 7.4504     9
 7.4554    16
 7.4604    12
 7.4654    10
 7.4704     9
 7.4754    10
 7.4804    12
 7.4854    10
 7.4904     6
 7.4954    13
 7.5003     5
 7.5053    11
 7.5103    15
 7.5153     8
 7.5203    13
 7.5253     8
 7.5303     4
 7.5353    16
 7.5403     9
 7.5453    11
 7.5503    11
 7.5553    10
 7.5603     7
 7.5653     7
 7.5703    12
 7.5753    12
 7.5803     8
 7.5853    11
 7.5903     5
 7.5953    11
 7.6003    11
 7.6053    10
 7.6103    14
 7.6153     6
 7.6203    10
 7.6253    15
 7.6303     7
 7.6353     6
 7.6403    12
 7.6453     8
 7.6503    13
 7.6553     9
 7.6603     8
 7.6653     9
 7.6703    10
 7.6753     7
 7.6803     9
 7.6853     8
 7.6903    14
 7.6953     8
 7.7003    10
 7.7053    10
 7.7103    11
 7.7153     8
 7.7203    10
 7.7253     9
 7.7303     7
 7.7353    11
 7.7403    15
 7.7453    10
 7.7503     7
 7.7553    10
 7.7603     5
 7.7653     7
 7.7703     3
 7.7753     7
 7.7803     9
 7.7853    11
 7.7903     9
 7.7953     6
 7.8003     7
 7.8053    12
 7.8103    11
 7.8153    10
 7.8203     6
 7.8253     8
 7.8303     4
 7.8352     8
 7.8402     2
 7.8452    10
 7.8502     5
 7.8552     8
 7.8602     5
 7.8652     7
 7.8702     7
 7.8752     8
 7.8802     5
 7.8852     5
 7.8902     5
 7.8952     6
 7.9002     4
 7.9052    12
 7.9102    13
 7.9152     6
 7.9202     6
 7.9252    11
 7.9302     2
 7.9352     6
 7.9402     2
 7.9452     4
 7.9502    10
 7.9552     6
 7.9602     8
 7.9652     8
 7.9702     6
 7.9752     7
 7.9802     4
 7.9852     4
 7.9902     4
 7.9952     4
 8.0002     8
 8.0052     7
 8.0102     2
 8.0152     2
 8.0202     4
 8.0252     3
 8.0302     8
 8.0352     4
 8.0402     4
 8.0452     8
 8.0502     6
 8.0552     3
 8.0602     6
 8.0652     7
 8.0702     3
 8.0752     7
 8.0802     5
 8.0852     6
 8.0902     4
 8.0952     7
 8.1002     0
 8.1052     8
 8.1102     3
 8.1152     1
 8.1202     9
 8.1252     3
 8.1302     3
 8.1352     3
 8.1402     5
 8.1452     5
 8.1502     5
 8.1552     4
 8.1602     5
 8.1651     4
 8.1701     2
 8.1751     3
 8.1801     5
 8.1851     1
 8.1901     1
 8.1951     4
 8.2001     2
 8.2051     7
 8.2101     1
 8.2151     3
 8.2201     2
 8.2251     5
 8.2301     3
 8.2351     3
 8.2401     4
 8.2451     2
 8.2501     4
 8.2551     1
 8.2601     3
 8.2651     2
 8.2701     4
 8.2751     0
 8.2801     2
 8.2851     2
 8.2901     1
 8.2951     3
 8.3001     4
 8.3051     4
 8.3101     2
 8.3151     3
 8.3201     3
 8.3251     3
 8.3301     1
 8.3351     3
 8.3401     2
 8.3451     2
 8.3501     1
 8.3551     3
 8.3601     0
 8.3651     4
 8.3701     1
 8.3751     2
 8.3801     1
 8.3851     2
 8.3901     4
 8.3951     2
 8.4001     2
 8.4051     2
 8.4101     2
 8.4151     0
 8.4201     2
 8.4251     1
 8.4301     0
 8.4351     2
 8.4401     3
 8.4451     5
 8.4501     1
 8.4551     0
 8.4601     1
 8.4651     2
 8.4701     2
 8.4751     1
 8.4801     4
 8.4851     1
 8.4901     1
 8.4951     2
    8.5     0
  8.505     0
   8.51     0
  8.515     2
   8.52     0
  8.525     1
   8.53     1
  8.535     0
   8.54     0
  8.545     3
   8.55     3
  8.555     2
   8.56     0
  8.565     0
   8.57     0
  8.575     0
   8.58     1
  8.585     0
   8.59     1
  8.595     1
    8.6     2
  8.605     2
   8.61     1
  8.615     2
   8.62     2
  8.625     1
   8.63     1
  8.635     1
   8.64     0
  8.645     3
   8.65     1
  8.655     0
   8.66     2
  8.665     0
   8.67     1
  8.675     2
   8.68     0
  8.685     0
   8.69     1
  8.695     0
    8.7     1
  8.705     0
   8.71     3
  8.715     3
   8.72     1
  8.725     0
   8.73     0
  8.735     0
   8.74     0
  8.745     0
   8.75     0
  8.755     0
   8.76     0
  8.765     0
   8.77     1
  8.775     0
   8.78     0
  8.785     0
   8.79     2
  8.795     0
    8.8     1
  8.805     0
   8.81     3
  8.815     0
   8.82     0
  8.825     0
   8.83     0
 8.8349     0
 8.8399     0
 8.8449     3
 8.8499     3
 8.8549     0
 8.8599     0
 8.8649     0
 8.8699     0
 8.8749     1
 8.8799     0
 8.8849     0
 8.8899     2
 8.8949     0
 8.8999     1
 8.9049     0
 8.9099     0
 8.9149     2
 8.9199     0
 8.9249     0
 8.9299     0
 8.9349     1
 8.9399     0
 8.9449     0
 8.9499     0
 8.9549     0
 8.9599     0
 8.9649     0
 8.9699     1
 8.9749     0
 8.9799     0
 8.9849     1
 8.9899     0
 8.9949     0
 8.9999     2
 9.0049     0
 9.0099     0
 9.0149     1
 9.0199     0
 9.0249     0
 9.0299     0
 9.0349     1
 9.0399     1
 9.0449     1
 9.0499     1
 9.0549     0
 9.0599     0
 9.0649     0
 9.0699     0
 9.0749     0
 9.0799     0
 9.0849     0
 9.0899     0
 9.0949     0
 9.0999     0
 9.1049     0
 9.1099     1
 9.1149     0
 9.1199     0
 9.1249     0
 9.1299     0
 9.1349     1
 9.1399     0
 9.1449     0
 9.1499     0
 9.1549     0
 9.1599     0
 9.1648     0
 9.1698     0
 9.1748     0
 9.1798     0
 9.1848     0
 9.1898     0
 9.1948     0
 9.1998     2
 9.2048     0
 9.2098     0
 9.2148     0
 9.2198     0
 9.2248     0
 9.2298     0
 9.2348     0
 9.2398     0
 9.2448     1
 9.2498     0
 9.2548     0
 9.2598     0
 9.2648     0
 9.2698     0
 9.2748     0
 9.2798     0
 9.2848     0
 9.2898     0
 9.2948     0
 9.2998     0
 9.3048     0
 9.3098     0
 9.3148     0
 9.3198     0
 9.3248     0
 9.3298     0
 9.3348     0
 9.3398     1
 9.3448     0
 9.3498     0
 9.3548     0
 9.3598     0
 9.3648     0
 9.3698     0
 9.3748     0
 9.3798     0
 9.3848     0
 9.3898     0
 9.3948     0
 9.3998     0
 9.4048     0
 9.4098     0
 9.4148     0
 9.4198     0
 9.4248     0
 9.4298     0
 9.4348     0
 9.4398     0
 9.4448     0
 9.4498     0
 9.4548     0
 9.4598     0
 9.4648     0
 9.4698     0
 9.4748     0
 9.4798     0
 9.4848     0
 9.4898     0
 9.4948     0
 9.4997     0
 9.5047     0
 9.5097     0
 9.5147     0
 9.5197     0
 9.5247     0
 9.5297     0
 9.5347     0
 9.5397     0
 9.5447     0
 9.5497     0
 9.5547     0
 9.5597     0
 9.5647     0
 9.5697     0
 9.5747     0
 9.5797     0
 9.5847     0
 9.5897     0
 9.5947     0
 9.5997     0
 9.6047     0
 9.6097     0
 9.6147     0
 9.6197     0
 9.6247     0
 9.6297     0
 9.6347     0
 9.6397     0
 9.6447     0
 9.6497     0
 9.6547     0
 9.6597     0
 9.6647     0
 9.6697     0
 9.6747     0
 9.6797     0
 9.6847     0
 9.6897     0
 9.6947     0
 9.6997     0
 9.7047     0
 9.7097     0
 9.7147     0
 9.7197     0
 9.7247     0
 9.7297     0
 9.7347     0
 9.7397     0
 9.7447     0
 9.7497     0
 9.7547     0
 9.7597     0
 9.7647     0
 9.7697     0
 9.7747     0
 9.7797     0
 9.7847     0
 9.7897     0
 9.7947     0
 9.7997     0
 9.8047     0
 9.8097     0
 9.8147     0
 9.8197     0
 9.8247     0
 9.8297     0
 9.8346     0
 9.8396     0
 9.8446     0
 9.8496     0
 9.8546     0
 9.8596     0
 9.8646     0
 9.8696     0
 9.8746     0
 9.8796     0
 9.8846     0
 9.8896     0
 9.8946     0
 9.8996     0
 9.9046     0
 9.9096     0
 9.9146     0
 9.9196     0
 9.9246     0
 9.9296     0
 9.9346     0
 9.9396     0
 9.9446     0
 9.9496     0
 9.9546     0
 9.9596     0
 9.9646     0
 9.9696     0
 9.9746     0
 9.9796     0
 9.9846     0
 9.9896     0
 9.9946     0
 9.9996     0
10.0046     0
10.0096     0
10.0146     0
10.0196     0
10.0246     0
10.0296     0
10.0346     0
10.0396     0
10.0446     0
10.0496     0
10.0546     0
10.0596     0
10.0646     0
10.0696     0
10.0746     0
10.0796     0
10.0846     0
10.0896     0
10.0946     0
10.0996     0
10.1046     0
10.1096     0
10.1146     0
10.1196     0
10.1246     0
10.1296     0
10.1346     0
10.1396     0
10.1446     0
10.1496     0
10.1546     0
10.1596     0
10.1645     0
10.1695     0
10.1745     0
10.1795     0
10.1845     0
10.1895     0
10.1945     0
10.1995     0
10.2045     0
10.2095     0
10.2145     0
10.2195     0
10.2245     0
10.2295     0
10.2345     0
10.2395     0
10.2445     0
10.2495     0
10.2545     0
10.2595     0
10.2645     0
10.2695     0
10.2745     0
10.2795     0
10.2845     0
10.2895     0
10.2945     0
10.2995     0
10.3045     0
10.3095     0
10.3145     0
10.3195     0
10.3245     0
10.3295     0
10.3345     0
10.3395     0
10.3445     0
10.3495     0
10.3545     0
10.3595     0
10.3645     0
10.3695     0
10.3745     0
10.3795     0
10.3845     0
10.3895     0
10.3945     0
10.3995     0
10.4045     0
10.4095     0
10.4145     0
10.4195     0
10.4245     0
10.4295     0
10.4345     0
10.4395     0
10.4445     0
10.4495     0
10.4545     0
10.4595     0
10.4645     0
10.4695     0
10.4745     0
10.4795     0
10.4845     0
10.4895     0
10.4945     0
10.4994     0
10.5044     0
10.5094     0
10.5144     0
10.5194     0
10.5244     0
10.5294     0
10.5344     0
10.5394     0
10.5444     0
10.5494     0
10.5544     0
10.5594     0
10.5644     0
10.5694     0
10.5744     0
10.5794     0
10.5844     0
10.5894     0
10.5944     0
10.5994     0
10.6044     0
10.6094     0
10.6144     0
10.6194     0
10.6244     0
10.6294     0
10.6344     0
10.6394     0
10.6444     0
10.6494     0
10.6544     0
10.6594     0
10.6644     0
10.6694     0
10.6744     0
10.6794     0
10.6844     0
10.6894     0
10.6944     0
10.6994     0
10.7044     0
10.7094     0
10.7144     0
10.7194     0
10.7244     0
10.7294     0
10.7344     0
10.7394     0
10.7444     0
10.7494     0
10.7544     0
10.7594     0
10.7644     0
10.7694     0
10.7744     0
10.7794     0
10.7844     0
10.7894     0
10.7944     0
10.7994     0
10.8044     0
10.8094     0
10.8144     0
10.8194     0
10.8244     0
10.8294     0
10.8343     0
10.8393     0
10.8443     0
10.8493     0
10.8543     0
10.8593     0
10.8643     0
10.8693     0
10.8743     0
10.8793     0
10.8843     0
10.8893     0
10.8943     0
10.8993     0
10.9043     0
10.9093     0
10.9143     0
10.9193     0
10.9243     0
10.9293     0
10.9343     0
10.9393     0
10.9443     0
10.9493     0
10.9543     0
10.9593     0
10.9643     0
10.9693     0
10.9743     0
10.9793     0
10.9843     0
10.9893     0
10.9943     0
10.9993     0
11.0043     0
11.0093     0
11.0143     0
11.0193     0
11.0243     0
11.0293     0
11.0343     0
11.0393     0
11.0443     0
11.0493     0
11.0543     0
11.0593     0
11.0643     0
11.0693     0
11.0743     0
11.0793     0
11.0843     0
11.0893     0
11.0943     0
11.0993     0
11.1043     0
11.1093     0
11.1143     0
11.1193     0
11.1243     0
11.1293     0
11.1343     0
11.1393     0
11.1443     0
11.1493     0
11.1543     0
11.1593     0
11.1642     0
11.1692     0
11.1742     0
11.1792     0
11.1842     0
11.1892     0
11.1942     0
11.1992     0
11.2042     0
11.2092     0
11.2142     0
11.2192     0
11.2242     0
11.2292     0
11.2342     0
11.2392     0
11.2442     0
11.2492     0
11.2542     0
11.2592     0
11.2642     0
11.2692     0
11.2742     0
11.2792     0
11.2842     0
11.2892     0
11.2942     0
11.2992     0
11.3042     0
11.3092     0
11.3142     0
11.3192     0
11.3242     0
11.3292     0
11.3342     0
11.3392     0
11.3442     0
11.3492     0
11.3542     0
11.3592     0
11.3642     0
11.3692     0
11.3742     0
11.3792     0
11.3842     0
11.3892     0
11.3942     0
11.3992     0
11.4042     0
11.4092     0
11.4142     0
11.4192     0
11.4242     0
11.4292     0
11.4342     0
11.4392     0
11.4442     0
11.4492     0
11.4542     0
11.4592     0
11.4642     0
11.4692     0
11.4742     0
11.4792     0
11.4842     0
11.4892     0
11.4942     0
11.4991     0
11.5041     0
11.5091     0
11.5141     0
11.5191     0
11.5241     0
11.5291     0
11.5341     0
11.5391     0
11.5441     0
11.5491     0
11.5541     0
11.5591     0
11.5641     0
11.5691     0
11.5741     0
11.5791     0
11.5841     0
11.5891     0
11.5941     0
11.5991     0
11.6041     0
11.6091     0
11.6141     0
11.6191     0
11.6241     0
11.6291     0
11.6341     0
11.6391     0
11.6441     0
11.6491     0
11.6541     0
11.6591     0
11.6641     0
11.6691     0
11.6741     0
11.6791     0
11.6841     0
11.6891     0
11.6941     0
11.6991     0
11.7041     0
11.7091     0
11.7141     0
11.7191     0
11.7241     0
11.7291     0
11.7341     0
11.7391     0
11.7441     0
11.7491     0
11.7541     0
11.7591     0
11.7641     0
11.7691     0
11.7741     0
11.7791     0
11.7841     0
11.7891     0
11.7941     0
11.7991     0
11.8041     0
11.8091     0
11.8141     0
11.8191     0
11.8241     0
11.8291     0
