Bruker Nano GmbH Berlin, Germany
Esprit 2.x

Date: 8/21/2023 1:31:15 PM
Real time: 139134
Life time: 138555
Pulse density: 5115

Primary energy: 10
Beam current: -1
Take off angle: 35
Tilt angle: 0
Azimut angle: 45

Detector type: Custom type
Window type: slew AP3.3
Detector thickness: 0.45
Si dead layer:0

Calibration, lin.: 4.998
Calibration, abs.: -477.257
Mn FWHM: 124.4
Fano factor: 0.109
Channels: 2073

Energy Counts
-0.4773     0
-0.4723     0
-0.4673     0
-0.4623     0
-0.4573     0
-0.4523     0
-0.4473     0
-0.4423     0
-0.4373     0
-0.4323     0
-0.4273     0
-0.4223     0
-0.4173     0
-0.4123     0
-0.4073     0
-0.4023     0
-0.3973     0
-0.3923     0
-0.3873     0
-0.3823     0
-0.3773     0
-0.3723     0
-0.3673     0
-0.3623     0
-0.3573     0
-0.3523     0
-0.3473     0
-0.3423     0
-0.3373     0
-0.3323     0
-0.3273     0
-0.3223     0
-0.3173     0
-0.3123     0
-0.3073     0
-0.3023     0
-0.2973     0
-0.2923     0
-0.2873     0
-0.2823     0
-0.2773     0
-0.2723     0
-0.2673     0
-0.2623     0
-0.2573     0
-0.2523     0
-0.2473     0
-0.2423     0
-0.2373     0
-0.2323     0
-0.2273     0
-0.2223     0
-0.2173     0
-0.2123     0
-0.2073     0
-0.2023     0
-0.1973     0
-0.1923     0
-0.1873     0
-0.1823     0
-0.1773     0
-0.1723     0
-0.1673     0
-0.1624     0
-0.1574     0
-0.1524     0
-0.1474     0
-0.1424     0
-0.1374     0
-0.1324     0
-0.1274     0
-0.1224     0
-0.1174     0
-0.1124     0
-0.1074     0
-0.1024     0
-0.0974     0
-0.0924     0
-0.0874     0
-0.0824     0
-0.0774     0
-0.0724     3
-0.0674    12
-0.0624    27
-0.0574    86
-0.0524   219
-0.0474   499
-0.0424   987
-0.0374  1906
-0.0324  3420
-0.0274  5423
-0.0224  8373
-0.0174 11455
-0.0124 14672
-0.0074 17316
-0.0024 18910
 0.0026 18807
 0.0076 17117
 0.0126 14635
 0.0176 11736
 0.0226  8023
 0.0276  5504
 0.0326  3363
 0.0376  1909
 0.0426  1026
 0.0476   461
 0.0526   212
 0.0576   106
 0.0626    37
 0.0676    17
 0.0726     6
 0.0776     2
 0.0826     0
 0.0876     0
 0.0926     0
 0.0976     1
 0.1026     0
 0.1076     0
 0.1126     0
 0.1176     0
 0.1226    14
 0.1276   134
 0.1326   232
 0.1376   193
 0.1426   169
 0.1476   139
 0.1526   123
 0.1576   138
 0.1626   136
 0.1675   153
 0.1725   131
 0.1775   127
 0.1825   144
 0.1875   142
 0.1925   136
 0.1975   124
 0.2025   148
 0.2075   165
 0.2125   189
 0.2175   237
 0.2225   317
 0.2275   417
 0.2325   593
 0.2375   760
 0.2425   973
 0.2475  1253
 0.2525  1542
 0.2575  1830
 0.2625  2075
 0.2675  2270
 0.2725  2416
 0.2775  2463
 0.2825  2368
 0.2875  2146
 0.2925  1891
 0.2975  1577
 0.3025  1236
 0.3075   950
 0.3125   713
 0.3175   515
 0.3225   369
 0.3275   275
 0.3325   214
 0.3375   190
 0.3425   190
 0.3475   192
 0.3525   198
 0.3575   209
 0.3625   211
 0.3675   232
 0.3725   264
 0.3775   264
 0.3825   270
 0.3875   310
 0.3925   318
 0.3975   326
 0.4025   353
 0.4075   371
 0.4125   365
 0.4175   388
 0.4225   369
 0.4275   414
 0.4325   474
 0.4375   504
 0.4425   597
 0.4475   690
 0.4525   848
 0.4575  1043
 0.4625  1389
 0.4675  1894
 0.4725  2642
 0.4775  3562
 0.4825  4796
 0.4875  6473
 0.4925  8322
 0.4975 10604
 0.5024 13051
 0.5074 15341
 0.5124 17431
 0.5174 18796
 0.5224 19705
 0.5274 19446
 0.5324 18681
 0.5374 17473
 0.5424 15073
 0.5474 12708
 0.5524 10407
 0.5574  7742
 0.5624  5868
 0.5674  4106
 0.5724  2740
 0.5774  1890
 0.5824  1241
 0.5874   855
 0.5924   606
 0.5974   444
 0.6024   391
 0.6074   352
 0.6124   380
 0.6174   354
 0.6224   377
 0.6274   382
 0.6324   354
 0.6374   342
 0.6424   366
 0.6474   360
 0.6524   346
 0.6574   338
 0.6624   399
 0.6674   449
 0.6724   519
 0.6774   568
 0.6824   662
 0.6874   763
 0.6924   832
 0.6974   864
 0.7024   968
 0.7074   987
 0.7124   999
 0.7174   911
 0.7224   943
 0.7274   874
 0.7324   805
 0.7374   798
 0.7424   635
 0.7474   546
 0.7524   482
 0.7574   427
 0.7624   385
 0.7674   333
 0.7724   297
 0.7774   305
 0.7824   296
 0.7874   304
 0.7924   283
 0.7974   273
 0.8024   299
 0.8074   267
 0.8124   252
 0.8174   261
 0.8224   266
 0.8274   280
 0.8324   285
 0.8373   257
 0.8423   244
 0.8473   276
 0.8523   281
 0.8573   281
 0.8623   275
 0.8673   274
 0.8723   251
 0.8773   314
 0.8823   251
 0.8873   283
 0.8923   303
 0.8973   296
 0.9023   282
 0.9073   285
 0.9123   310
 0.9173   312
 0.9223   266
 0.9273   318
 0.9323   320
 0.9373   305
 0.9423   303
 0.9473   291
 0.9523   333
 0.9573   297
 0.9623   301
 0.9673   317
 0.9723   319
 0.9773   379
 0.9823   380
 0.9873   376
 0.9923   412
 0.9973   428
 1.0023   482
 1.0073   511
 1.0123   580
 1.0173   700
 1.0223   680
 1.0273   709
 1.0323   738
 1.0373   756
 1.0423   746
 1.0473   733
 1.0523   733
 1.0573   706
 1.0623   664
 1.0673   638
 1.0723   597
 1.0773   547
 1.0823   502
 1.0873   476
 1.0923   452
 1.0973   402
 1.1023   363
 1.1073   357
 1.1123   350
 1.1173   343
 1.1223   344
 1.1273   343
 1.1323   335
 1.1373   326
 1.1423   322
 1.1473   315
 1.1523   334
 1.1573   366
 1.1623   332
 1.1672   341
 1.1722   352
 1.1772   362
 1.1822   358
 1.1872   408
 1.1922   434
 1.1972   462
 1.2022   540
 1.2072   639
 1.2122   764
 1.2172   868
 1.2222  1027
 1.2272  1135
 1.2322  1252
 1.2372  1366
 1.2422  1456
 1.2472  1645
 1.2522  1640
 1.2572  1631
 1.2622  1676
 1.2672  1617
 1.2722  1521
 1.2772  1431
 1.2822  1248
 1.2872  1130
 1.2922  1086
 1.2972   919
 1.3022   804
 1.3072   704
 1.3122   571
 1.3172   515
 1.3222   470
 1.3272   470
 1.3322   413
 1.3372   376
 1.3422   355
 1.3472   333
 1.3522   327
 1.3572   321
 1.3622   334
 1.3672   332
 1.3722   348
 1.3772   335
 1.3822   347
 1.3872   350
 1.3922   374
 1.3972   362
 1.4022   426
 1.4072   499
 1.4122   553
 1.4172   631
 1.4222   724
 1.4272   942
 1.4322  1138
 1.4372  1460
 1.4422  1904
 1.4472  2270
 1.4522  2622
 1.4572  3085
 1.4622  3726
 1.4672  4247
 1.4722  4531
 1.4772  4900
 1.4822  5144
 1.4872  5245
 1.4922  5358
 1.4972  5164
 1.5021  5014
 1.5071  4779
 1.5121  4378
 1.5171  3830
 1.5221  3304
 1.5271  2798
 1.5321  2374
 1.5371  2039
 1.5421  1647
 1.5471  1396
 1.5521  1100
 1.5571   933
 1.5621   751
 1.5671   662
 1.5721   563
 1.5771   481
 1.5821   447
 1.5871   418
 1.5921   391
 1.5971   352
 1.6021   329
 1.6071   347
 1.6121   325
 1.6171   303
 1.6221   292
 1.6271   284
 1.6321   297
 1.6371   308
 1.6421   343
 1.6471   402
 1.6521   449
 1.6571   550
 1.6621   668
 1.6671   831
 1.6721  1062
 1.6771  1324
 1.6821  1644
 1.6871  2189
 1.6921  2707
 1.6971  3283
 1.7021  4039
 1.7071  4808
 1.7121  5526
 1.7171  6211
 1.7221  6946
 1.7271  7549
 1.7321  8101
 1.7371  8341
 1.7421  8495
 1.7471  8357
 1.7521  8012
 1.7571  7731
 1.7621  7139
 1.7671  6425
 1.7721  5622
 1.7771  4966
 1.7821  4291
 1.7871  3578
 1.7921  2983
 1.7971  2412
 1.8021  1993
 1.8071  1656
 1.8121  1372
 1.8171  1117
 1.8221   956
 1.8271   831
 1.8321   735
  1.837   646
  1.842   580
  1.847   535
  1.852   511
  1.857   476
  1.862   432
  1.867   397
  1.872   376
  1.877   352
  1.882   324
  1.887   307
  1.892   291
  1.897   255
  1.902   246
  1.907   254
  1.912   219
  1.917   209
  1.922   204
  1.927   190
  1.932   208
  1.937   215
  1.942   193
  1.947   202
  1.952   218
  1.957   219
  1.962   212
  1.967   192
  1.972   190
  1.977   202
  1.982   198
  1.987   212
  1.992   231
  1.997   242
  2.002   241
  2.007   220
  2.012   244
  2.017   240
  2.022   213
  2.027   229
  2.032   223
  2.037   235
  2.042   228
  2.047   194
  2.052   205
  2.057   214
  2.062   213
  2.067   208
  2.072   189
  2.077   206
  2.082   204
  2.087   180
  2.092   178
  2.097   174
  2.102   172
  2.107   169
  2.112   155
  2.117   157
  2.122   170
  2.127   191
  2.132   183
  2.137   174
  2.142   186
  2.147   167
  2.152   160
  2.157   164
  2.162   167
 2.1669   167
 2.1719   168
 2.1769   172
 2.1819   165
 2.1869   159
 2.1919   157
 2.1969   161
 2.2019   161
 2.2069   148
 2.2119   147
 2.2169   148
 2.2219   153
 2.2269   163
 2.2319   154
 2.2369   147
 2.2419   158
 2.2469   156
 2.2519   158
 2.2569   181
 2.2619   170
 2.2669   175
 2.2719   181
 2.2769   190
 2.2819   183
 2.2869   171
 2.2919   162
 2.2969   157
 2.3019   174
 2.3069   170
 2.3119   167
 2.3169   177
 2.3219   168
 2.3269   176
 2.3319   176
 2.3369   183
 2.3419   200
 2.3469   174
 2.3519   163
 2.3569   165
 2.3619   170
 2.3669   174
 2.3719   165
 2.3769   164
 2.3819   160
 2.3869   150
 2.3919   159
 2.3969   158
 2.4019   162
 2.4069   145
 2.4119   146
 2.4169   168
 2.4219   161
 2.4269   173
 2.4319   159
 2.4369   153
 2.4419   147
 2.4469   134
 2.4519   153
 2.4569   166
 2.4619   172
 2.4669   179
 2.4719   149
 2.4769   137
 2.4819   146
 2.4869   157
 2.4919   156
 2.4969   155
 2.5018   164
 2.5068   160
 2.5118   141
 2.5168   157
 2.5218   148
 2.5268   141
 2.5318   152
 2.5368   139
 2.5418   154
 2.5468   166
 2.5518   169
 2.5568   153
 2.5618   146
 2.5668   178
 2.5718   163
 2.5768   170
 2.5818   179
 2.5868   188
 2.5918   182
 2.5968   191
 2.6018   183
 2.6068   195
 2.6118   194
 2.6168   206
 2.6218   195
 2.6268   194
 2.6318   186
 2.6368   203
 2.6418   178
 2.6468   169
 2.6518   180
 2.6568   198
 2.6618   186
 2.6668   177
 2.6718   158
 2.6768   157
 2.6818   142
 2.6868   150
 2.6918   154
 2.6968   131
 2.7018   154
 2.7068   133
 2.7118   154
 2.7168   137
 2.7218   141
 2.7268   142
 2.7318   119
 2.7368   132
 2.7418   126
 2.7468   132
 2.7518   126
 2.7568   151
 2.7618   120
 2.7668   122
 2.7718   139
 2.7768   121
 2.7818   147
 2.7868   119
 2.7918   127
 2.7968   126
 2.8018   144
 2.8068   138
 2.8118   144
 2.8168   132
 2.8218   122
 2.8268   134
 2.8318   135
 2.8367   150
 2.8417   141
 2.8467   141
 2.8517   136
 2.8567   116
 2.8617   122
 2.8667   135
 2.8717   124
 2.8767   135
 2.8817   109
 2.8867   111
 2.8917   116
 2.8967   135
 2.9017   116
 2.9067   132
 2.9117   120
 2.9167   123
 2.9217   102
 2.9267   119
 2.9317   129
 2.9367   108
 2.9417   115
 2.9467   117
 2.9517    94
 2.9567   131
 2.9617    99
 2.9667   117
 2.9717   113
 2.9767   120
 2.9817   124
 2.9867   108
 2.9917   110
 2.9967   121
 3.0017   116
 3.0067   117
 3.0117   124
 3.0167   107
 3.0217   108
 3.0267    97
 3.0317   124
 3.0367   116
 3.0417   103
 3.0467   111
 3.0517   106
 3.0567    95
 3.0617   105
 3.0667   125
 3.0717   104
 3.0767   119
 3.0817    89
 3.0867   118
 3.0917   107
 3.0967   103
 3.1017   101
 3.1067   104
 3.1117   102
 3.1167    97
 3.1217   105
 3.1267   107
 3.1317   108
 3.1367   110
 3.1417   104
 3.1467   102
 3.1517    97
 3.1567   112
 3.1617    97
 3.1666    97
 3.1716    97
 3.1766   112
 3.1816   117
 3.1866   115
 3.1916    97
 3.1966   110
 3.2016   116
 3.2066   132
 3.2116   123
 3.2166   142
 3.2216   146
 3.2266   177
 3.2316   177
 3.2366   186
 3.2416   205
 3.2466   221
 3.2516   281
 3.2566   294
 3.2616   331
 3.2666   351
 3.2716   402
 3.2766   397
 3.2816   452
 3.2866   510
 3.2916   537
 3.2966   565
 3.3016   560
 3.3066   563
 3.3116   591
 3.3166   591
 3.3216   595
 3.3266   585
 3.3316   543
 3.3366   514
 3.3416   475
 3.3466   426
 3.3516   381
 3.3566   394
 3.3616   323
 3.3666   322
 3.3716   285
 3.3766   246
 3.3816   243
 3.3866   194
 3.3916   170
 3.3966   172
 3.4016   149
 3.4066   126
 3.4116   134
 3.4166   106
 3.4216   103
 3.4266   115
 3.4316   113
 3.4366    97
 3.4416    95
 3.4466    97
 3.4516   118
 3.4566    90
 3.4616    86
 3.4666    88
 3.4716    85
 3.4766    83
 3.4816    93
 3.4866    90
 3.4916    93
 3.4966    90
 3.5015   112
 3.5065   103
 3.5115    91
 3.5165   108
 3.5215    94
 3.5265   112
 3.5315   123
 3.5365   117
 3.5415   110
 3.5465   126
 3.5515   109
 3.5565   126
 3.5615   122
 3.5665   137
 3.5715   148
 3.5765   146
 3.5815   116
 3.5865   134
 3.5915   145
 3.5965   149
 3.6015   132
 3.6065   141
 3.6115   155
 3.6165   143
 3.6215   114
 3.6265   132
 3.6315   115
 3.6365   138
 3.6415   118
 3.6465   116
 3.6515   119
 3.6565   108
 3.6615   148
 3.6665   105
 3.6715   147
 3.6765   121
 3.6815   111
 3.6865   106
 3.6915   112
 3.6965   110
 3.7015   134
 3.7065    98
 3.7115   109
 3.7165    98
 3.7215    96
 3.7265   110
 3.7315    84
 3.7365    87
 3.7415    93
 3.7465    99
 3.7515    87
 3.7565    91
 3.7615    79
 3.7665    99
 3.7715    92
 3.7765    66
 3.7815    91
 3.7865    71
 3.7915    79
 3.7965    88
 3.8015    73
 3.8065    86
 3.8115    87
 3.8165    65
 3.8215    89
 3.8265    84
 3.8315    62
 3.8364    64
 3.8414    67
 3.8464    74
 3.8514    56
 3.8564    58
 3.8614    73
 3.8664    59
 3.8714    62
 3.8764    62
 3.8814    79
 3.8864    88
 3.8914    67
 3.8964    65
 3.9014    69
 3.9064    75
 3.9114    73
 3.9164    73
 3.9214    79
 3.9264    76
 3.9314    83
 3.9364    68
 3.9414    66
 3.9464    58
 3.9514    65
 3.9564    81
 3.9614    79
 3.9664    78
 3.9714    71
 3.9764    82
 3.9814    77
 3.9864    69
 3.9914    71
 3.9964    87
 4.0014    73
 4.0064    75
 4.0114    72
 4.0164    86
 4.0214    72
 4.0264    70
 4.0314    61
 4.0364    63
 4.0414    72
 4.0464    71
 4.0514    64
 4.0564    65
 4.0614    75
 4.0664    78
 4.0714    80
 4.0764    90
 4.0814    77
 4.0864    66
 4.0914    72
 4.0964    65
 4.1014    72
 4.1064    68
 4.1114    60
 4.1164    69
 4.1214    77
 4.1264    56
 4.1314    63
 4.1364    68
 4.1414    60
 4.1464    63
 4.1514    74
 4.1564    59
 4.1614    77
 4.1663    77
 4.1713    69
 4.1763    63
 4.1813    59
 4.1863    61
 4.1913    63
 4.1963    58
 4.2013    55
 4.2063    58
 4.2113    52
 4.2163    55
 4.2213    59
 4.2263    68
 4.2313    68
 4.2363    55
 4.2413    77
 4.2463    79
 4.2513    69
 4.2563    64
 4.2613    62
 4.2663    76
 4.2713    77
 4.2763    69
 4.2813    64
 4.2863    55
 4.2913    53
 4.2963    57
 4.3013    53
 4.3063    48
 4.3113    55
 4.3163    60
 4.3213    67
 4.3263    60
 4.3313    57
 4.3363    58
 4.3413    57
 4.3463    49
 4.3513    53
 4.3563    57
 4.3613    59
 4.3663    65
 4.3713    61
 4.3763    58
 4.3813    59
 4.3863    59
 4.3913    55
 4.3963    57
 4.4013    65
 4.4063    63
 4.4113    62
 4.4163    54
 4.4213    60
 4.4263    61
 4.4313    63
 4.4363    59
 4.4413    50
 4.4463    59
 4.4513    66
 4.4563    62
 4.4613    71
 4.4663    67
 4.4713    58
 4.4763    56
 4.4813    52
 4.4863    63
 4.4913    65
 4.4963    68
 4.5012    67
 4.5062    66
 4.5112    54
 4.5162    53
 4.5212    57
 4.5262    57
 4.5312    53
 4.5362    62
 4.5412    74
 4.5462    69
 4.5512    57
 4.5562    48
 4.5612    51
 4.5662    54
 4.5712    57
 4.5762    49
 4.5812    45
 4.5862    47
 4.5912    44
 4.5962    46
 4.6012    54
 4.6062    52
 4.6112    58
 4.6162    57
 4.6212    46
 4.6262    48
 4.6312    51
 4.6362    46
 4.6412    48
 4.6462    48
 4.6512    45
 4.6562    46
 4.6612    46
 4.6662    48
 4.6712    45
 4.6762    42
 4.6812    44
 4.6862    53
 4.6912    55
 4.6962    46
 4.7012    44
 4.7062    48
 4.7112    47
 4.7162    53
 4.7212    56
 4.7262    52
 4.7312    48
 4.7362    48
 4.7412    52
 4.7462    52
 4.7512    52
 4.7562    52
 4.7612    50
 4.7662    46
 4.7712    54
 4.7762    51
 4.7812    48
 4.7862    52
 4.7912    46
 4.7962    47
 4.8012    52
 4.8062    53
 4.8112    49
 4.8162    48
 4.8212    47
 4.8262    45
 4.8312    49
 4.8361    53
 4.8411    52
 4.8461    50
 4.8511    49
 4.8561    46
 4.8611    43
 4.8661    44
 4.8711    42
 4.8761    42
 4.8811    43
 4.8861    42
 4.8911    49
 4.8961    46
 4.9011    42
 4.9061    41
 4.9111    43
 4.9161    53
 4.9211    53
 4.9261    44
 4.9311    40
 4.9361    44
 4.9411    52
 4.9461    57
 4.9511    51
 4.9561    44
 4.9611    47
 4.9661    49
 4.9711    41
 4.9761    49
 4.9811    51
 4.9861    47
 4.9911    46
 4.9961    40
 5.0011    42
 5.0061    44
 5.0111    40
 5.0161    42
 5.0211    39
 5.0261    41
 5.0311    47
 5.0361    41
 5.0411    42
 5.0461    51
 5.0511    49
 5.0561    41
 5.0611    41
 5.0661    39
 5.0711    45
 5.0761    44
 5.0811    41
 5.0861    42
 5.0911    34
 5.0961    27
 5.1011    35
 5.1061    52
 5.1111    51
 5.1161    38
 5.1211    33
 5.1261    39
 5.1311    39
 5.1361    37
 5.1411    42
 5.1461    41
 5.1511    36
 5.1561    39
 5.1611    40
  5.166    39
  5.171    36
  5.176    43
  5.181    47
  5.186    48
  5.191    51
  5.196    47
  5.201    35
  5.206    39
  5.211    37
  5.216    41
  5.221    42
  5.226    37
  5.231    34
  5.236    40
  5.241    49
  5.246    44
  5.251    37
  5.256    35
  5.261    40
  5.266    41
  5.271    41
  5.276    37
  5.281    40
  5.286    30
  5.291    31
  5.296    36
  5.301    29
  5.306    38
  5.311    40
  5.316    43
  5.321    48
  5.326    46
  5.331    37
  5.336    30
  5.341    31
  5.346    35
  5.351    33
  5.356    33
  5.361    44
  5.366    35
  5.371    34
  5.376    40
  5.381    31
  5.386    35
  5.391    40
  5.396    36
  5.401    27
  5.406    34
  5.411    30
  5.416    32
  5.421    33
  5.426    31
  5.431    35
  5.436    34
  5.441    25
  5.446    26
  5.451    35
  5.456    39
  5.461    39
  5.466    45
  5.471    39
  5.476    33
  5.481    36
  5.486    36
  5.491    34
  5.496    42
 5.5009    36
 5.5059    27
 5.5109    27
 5.5159    31
 5.5209    35
 5.5259    30
 5.5309    35
 5.5359    41
 5.5409    31
 5.5459    33
 5.5509    29
 5.5559    31
 5.5609    27
 5.5659    28
 5.5709    35
 5.5759    33
 5.5809    36
 5.5859    29
 5.5909    30
 5.5959    34
 5.6009    32
 5.6059    35
 5.6109    39
 5.6159    27
 5.6209    33
 5.6259    29
 5.6309    29
 5.6359    39
 5.6409    22
 5.6459    24
 5.6509    36
 5.6559    31
 5.6609    37
 5.6659    24
 5.6709    30
 5.6759    27
 5.6809    38
 5.6859    38
 5.6909    28
 5.6959    30
 5.7009    32
 5.7059    28
 5.7109    27
 5.7159    34
 5.7209    29
 5.7259    32
 5.7309    33
 5.7359    37
 5.7409    32
 5.7459    44
 5.7509    30
 5.7559    35
 5.7609    37
 5.7659    26
 5.7709    20
 5.7759    36
 5.7809    31
 5.7859    35
 5.7909    33
 5.7959    26
 5.8009    20
 5.8059    39
 5.8109    26
 5.8159    25
 5.8209    34
 5.8259    24
 5.8309    29
 5.8358    25
 5.8408    22
 5.8458    40
 5.8508    26
 5.8558    32
 5.8608    32
 5.8658    34
 5.8708    21
 5.8758    40
 5.8808    32
 5.8858    24
 5.8908    35
 5.8958    27
 5.9008    43
 5.9058    31
 5.9108    36
 5.9158    35
 5.9208    26
 5.9258    39
 5.9308    23
 5.9358    42
 5.9408    30
 5.9458    16
 5.9508    21
 5.9558    31
 5.9608    21
 5.9658    21
 5.9708    24
 5.9758    25
 5.9808    23
 5.9858    31
 5.9908    31
 5.9958    30
 6.0008    24
 6.0058    24
 6.0108    21
 6.0158    27
 6.0208    23
 6.0258    24
 6.0308    30
 6.0358    23
 6.0408    35
 6.0458    24
 6.0508    30
 6.0558    22
 6.0608    21
 6.0658    20
 6.0708    32
 6.0758    21
 6.0808    25
 6.0858    34
 6.0908    19
 6.0958    24
 6.1008    28
 6.1058    21
 6.1108    24
 6.1158    20
 6.1208    22
 6.1258    24
 6.1308    19
 6.1358    23
 6.1408    29
 6.1458    15
 6.1508    24
 6.1558    16
 6.1608    19
 6.1657    22
 6.1707    33
 6.1757    23
 6.1807    17
 6.1857    29
 6.1907    22
 6.1957    26
 6.2007    29
 6.2057    25
 6.2107    28
 6.2157    15
 6.2207    28
 6.2257    32
 6.2307    26
 6.2357    22
 6.2407    23
 6.2457    28
 6.2507    26
 6.2557    18
 6.2607    20
 6.2657    27
 6.2707    23
 6.2757    21
 6.2807    32
 6.2857    34
 6.2907    23
 6.2957    22
 6.3007    30
 6.3057    34
 6.3107    32
 6.3157    35
 6.3207    35
 6.3257    46
 6.3307    49
 6.3357    35
 6.3407    44
 6.3457    45
 6.3507    49
 6.3557    57
 6.3607    46
 6.3657    54
 6.3707    45
 6.3757    62
 6.3807    54
 6.3857    94
 6.3907    61
 6.3957    62
 6.4007    64
 6.4057    64
 6.4107    62
 6.4157    49
 6.4207    63
 6.4257    56
 6.4307    55
 6.4357    50
 6.4407    61
 6.4457    40
 6.4507    47
 6.4557    40
 6.4607    44
 6.4657    39
 6.4707    31
 6.4757    39
 6.4807    32
 6.4857    37
 6.4907    24
 6.4957    37
 6.5006    30
 6.5056    30
 6.5106    26
 6.5156    29
 6.5206    26
 6.5256    24
 6.5306    17
 6.5356    24
 6.5406    27
 6.5456    14
 6.5506    22
 6.5556    12
 6.5606    19
 6.5656    26
 6.5706    14
 6.5756    23
 6.5806    18
 6.5856    19
 6.5906    21
 6.5956    20
 6.6006    13
 6.6056    21
 6.6106    17
 6.6156    19
 6.6206    18
 6.6256    17
 6.6306    21
 6.6356    23
 6.6406    16
 6.6456    23
 6.6506    23
 6.6556    15
 6.6606    13
 6.6656    12
 6.6706    20
 6.6756    16
 6.6806    20
 6.6856    16
 6.6906    17
 6.6956    17
 6.7006    16
 6.7056    10
 6.7106    23
 6.7156    25
 6.7206    14
 6.7256    22
 6.7306    15
 6.7356    18
 6.7406    19
 6.7456    13
 6.7506    11
 6.7556    16
 6.7606     9
 6.7656    18
 6.7706    11
 6.7756    16
 6.7806    16
 6.7856    16
 6.7906    27
 6.7956    14
 6.8006    23
 6.8056    24
 6.8106    19
 6.8156    13
 6.8206    19
 6.8256    16
 6.8306    19
 6.8355    19
 6.8405    15
 6.8455    15
 6.8505    23
 6.8555    16
 6.8605    10
 6.8655    18
 6.8705    22
 6.8755    21
 6.8805    13
 6.8855    11
 6.8905    18
 6.8955    13
 6.9005    17
 6.9055    14
 6.9105    19
 6.9155    16
 6.9205    23
 6.9255    18
 6.9305     6
 6.9355    19
 6.9405     8
 6.9455    12
 6.9505    17
 6.9555    19
 6.9605    21
 6.9655    16
 6.9705    14
 6.9755    19
 6.9805    22
 6.9855    24
 6.9905    16
 6.9955    15
 7.0005    18
 7.0055    22
 7.0105    14
 7.0155    19
 7.0205    17
 7.0255    20
 7.0305    27
 7.0355    21
 7.0405    16
 7.0455    15
 7.0505    23
 7.0555    19
 7.0605    13
 7.0655    16
 7.0705    25
 7.0755    10
 7.0805    17
 7.0855    14
 7.0905    13
 7.0955    12
 7.1005    18
 7.1055    14
 7.1105    17
 7.1155    22
 7.1205    19
 7.1255    13
 7.1305    12
 7.1355    14
 7.1405    24
 7.1455    10
 7.1505    17
 7.1555    13
 7.1605    10
 7.1654    18
 7.1704    15
 7.1754    15
 7.1804    23
 7.1854    10
 7.1904    10
 7.1954    14
 7.2004    13
 7.2054     7
 7.2104    15
 7.2154     8
 7.2204    12
 7.2254    14
 7.2304    15
 7.2354    11
 7.2404    16
 7.2454     8
 7.2504    10
 7.2554    19
 7.2604    11
 7.2654     9
 7.2704    13
 7.2754    10
 7.2804    17
 7.2854    14
 7.2904    12
 7.2954    14
 7.3004    14
 7.3054     6
 7.3104    17
 7.3154    12
 7.3204     8
 7.3254     8
 7.3304     8
 7.3354     9
 7.3404    10
 7.3454     8
 7.3504    12
 7.3554     8
 7.3604    13
 7.3654     7
 7.3704    13
 7.3754    16
 7.3804     9
 7.3854     8
 7.3904    13
 7.3954     9
 7.4004    11
 7.4054    10
 7.4104     5
 7.4154    10
 7.4204    14
 7.4254     8
 7.4304     9
 7.4354    13
 7.4404     6
 7.4454    13
 7.4504     9
 7.4554    14
 7.4604     7
 7.4654     9
 7.4704     5
 7.4754    12
 7.4804     5
 7.4854     9
 7.4904     6
 7.4954     9
 7.5003     9
 7.5053    10
 7.5103    12
 7.5153    12
 7.5203    11
 7.5253     9
 7.5303     9
 7.5353    11
 7.5403    13
 7.5453    11
 7.5503    12
 7.5553     6
 7.5603     7
 7.5653     9
 7.5703     7
 7.5753    11
 7.5803    12
 7.5853    13
 7.5903     5
 7.5953    15
 7.6003    14
 7.6053     8
 7.6103     8
 7.6153     9
 7.6203     9
 7.6253     4
 7.6303     8
 7.6353     6
 7.6403     8
 7.6453    12
 7.6503     8
 7.6553    13
 7.6603     3
 7.6653    11
 7.6703     8
 7.6753     8
 7.6803     6
 7.6853     8
 7.6903    11
 7.6953     3
 7.7003     9
 7.7053    10
 7.7103     9
 7.7153     6
 7.7203     9
 7.7253     9
 7.7303     5
 7.7353     7
 7.7403     6
 7.7453     6
 7.7503     5
 7.7553     4
 7.7603     5
 7.7653     9
 7.7703     9
 7.7753     7
 7.7803    10
 7.7853     7
 7.7903    12
 7.7953     9
 7.8003     6
 7.8053     9
 7.8103     6
 7.8153     7
 7.8203     5
 7.8253     9
 7.8303     3
 7.8352    12
 7.8402     1
 7.8452     6
 7.8502     8
 7.8552     4
 7.8602     5
 7.8652     8
 7.8702     8
 7.8752     8
 7.8802     1
 7.8852    10
 7.8902     8
 7.8952     5
 7.9002     8
 7.9052     5
 7.9102     8
 7.9152    11
 7.9202     7
 7.9252     7
 7.9302     5
 7.9352     9
 7.9402     7
 7.9452     7
 7.9502     4
 7.9552     7
 7.9602     4
 7.9652     2
 7.9702     6
 7.9752     2
 7.9802     5
 7.9852     5
 7.9902     3
 7.9952     5
 8.0002     7
 8.0052     8
 8.0102     5
 8.0152     3
 8.0202     6
 8.0252     4
 8.0302     7
 8.0352     4
 8.0402     5
 8.0452     5
 8.0502     5
 8.0552     2
 8.0602     6
 8.0652     6
 8.0702     0
 8.0752     2
 8.0802     6
 8.0852     7
 8.0902     1
 8.0952     2
 8.1002     5
 8.1052     5
 8.1102     2
 8.1152     5
 8.1202     3
 8.1252     6
 8.1302     4
 8.1352     7
 8.1402     4
 8.1452     4
 8.1502     3
 8.1552     6
 8.1602     0
 8.1651     2
 8.1701     7
 8.1751     8
 8.1801     4
 8.1851     2
 8.1901     1
 8.1951     1
 8.2001     3
 8.2051     5
 8.2101     1
 8.2151     3
 8.2201     3
 8.2251     7
 8.2301     5
 8.2351     4
 8.2401     6
 8.2451     3
 8.2501     4
 8.2551     5
 8.2601     4
 8.2651     3
 8.2701     4
 8.2751     7
 8.2801     4
 8.2851     3
 8.2901     1
 8.2951     4
 8.3001     4
 8.3051     4
 8.3101     1
 8.3151     4
 8.3201     6
 8.3251     3
 8.3301     3
 8.3351     3
 8.3401     3
 8.3451     3
 8.3501     2
 8.3551     2
 8.3601     1
 8.3651     3
 8.3701     1
 8.3751     4
 8.3801     5
 8.3851     3
 8.3901     3
 8.3951     3
 8.4001     1
 8.4051     1
 8.4101     4
 8.4151     3
 8.4201     0
 8.4251     0
 8.4301     2
 8.4351     2
 8.4401     1
 8.4451     0
 8.4501     4
 8.4551     5
 8.4601     2
 8.4651     2
 8.4701     2
 8.4751     0
 8.4801     2
 8.4851     3
 8.4901     3
 8.4951     2
    8.5     3
  8.505     2
   8.51     2
  8.515     1
   8.52     2
  8.525     2
   8.53     1
  8.535     2
   8.54     1
  8.545     1
   8.55     2
  8.555     1
   8.56     0
  8.565     3
   8.57     1
  8.575     2
   8.58     1
  8.585     1
   8.59     2
  8.595     1
    8.6     1
  8.605     2
   8.61     0
  8.615     4
   8.62     2
  8.625     1
   8.63     2
  8.635     0
   8.64     0
  8.645     2
   8.65     1
  8.655     0
   8.66     0
  8.665     0
   8.67     0
  8.675     1
   8.68     1
  8.685     1
   8.69     1
  8.695     0
    8.7     0
  8.705     2
   8.71     1
  8.715     0
   8.72     2
  8.725     0
   8.73     1
  8.735     0
   8.74     0
  8.745     1
   8.75     3
  8.755     0
   8.76     1
  8.765     1
   8.77     1
  8.775     0
   8.78     0
  8.785     0
   8.79     0
  8.795     1
    8.8     1
  8.805     0
   8.81     0
  8.815     0
   8.82     0
  8.825     1
   8.83     0
 8.8349     0
 8.8399     0
 8.8449     0
 8.8499     0
 8.8549     0
 8.8599     1
 8.8649     1
 8.8699     1
 8.8749     0
 8.8799     1
 8.8849     0
 8.8899     0
 8.8949     0
 8.8999     0
 8.9049     0
 8.9099     0
 8.9149     1
 8.9199     0
 8.9249     1
 8.9299     0
 8.9349     2
 8.9399     1
 8.9449     0
 8.9499     0
 8.9549     2
 8.9599     0
 8.9649     1
 8.9699     1
 8.9749     0
 8.9799     0
 8.9849     0
 8.9899     0
 8.9949     0
 8.9999     1
 9.0049     0
 9.0099     0
 9.0149     0
 9.0199     0
 9.0249     1
 9.0299     2
 9.0349     1
 9.0399     1
 9.0449     0
 9.0499     0
 9.0549     0
 9.0599     1
 9.0649     0
 9.0699     0
 9.0749     1
 9.0799     0
 9.0849     0
 9.0899     0
 9.0949     1
 9.0999     0
 9.1049     0
 9.1099     0
 9.1149     0
 9.1199     0
 9.1249     0
 9.1299     0
 9.1349     2
 9.1399     0
 9.1449     0
 9.1499     0
 9.1549     0
 9.1599     1
 9.1648     0
 9.1698     0
 9.1748     0
 9.1798     0
 9.1848     1
 9.1898     1
 9.1948     1
 9.1998     0
 9.2048     0
 9.2098     0
 9.2148     0
 9.2198     0
 9.2248     0
 9.2298     0
 9.2348     0
 9.2398     0
 9.2448     0
 9.2498     0
 9.2548     0
 9.2598     0
 9.2648     0
 9.2698     0
 9.2748     0
 9.2798     0
 9.2848     0
 9.2898     1
 9.2948     0
 9.2998     0
 9.3048     0
 9.3098     0
 9.3148     0
 9.3198     0
 9.3248     0
 9.3298     0
 9.3348     0
 9.3398     0
 9.3448     0
 9.3498     0
 9.3548     0
 9.3598     0
 9.3648     1
 9.3698     0
 9.3748     0
 9.3798     0
 9.3848     1
 9.3898     0
 9.3948     0
 9.3998     0
 9.4048     0
 9.4098     1
 9.4148     0
 9.4198     1
 9.4248     0
 9.4298     0
 9.4348     0
 9.4398     0
 9.4448     0
 9.4498     0
 9.4548     1
 9.4598     0
 9.4648     0
 9.4698     0
 9.4748     0
 9.4798     0
 9.4848     0
 9.4898     0
 9.4948     0
 9.4997     0
 9.5047     0
 9.5097     0
 9.5147     1
 9.5197     0
 9.5247     0
 9.5297     0
 9.5347     0
 9.5397     0
 9.5447     0
 9.5497     0
 9.5547     0
 9.5597     0
 9.5647     0
 9.5697     0
 9.5747     0
 9.5797     0
 9.5847     0
 9.5897     0
 9.5947     0
 9.5997     0
 9.6047     0
 9.6097     0
 9.6147     0
 9.6197     0
 9.6247     0
 9.6297     0
 9.6347     0
 9.6397     0
 9.6447     0
 9.6497     0
 9.6547     0
 9.6597     0
 9.6647     0
 9.6697     0
 9.6747     0
 9.6797     0
 9.6847     0
 9.6897     0
 9.6947     0
 9.6997     0
 9.7047     0
 9.7097     0
 9.7147     0
 9.7197     0
 9.7247     0
 9.7297     0
 9.7347     0
 9.7397     0
 9.7447     1
 9.7497     0
 9.7547     0
 9.7597     0
 9.7647     0
 9.7697     0
 9.7747     0
 9.7797     0
 9.7847     0
 9.7897     0
 9.7947     0
 9.7997     0
 9.8047     0
 9.8097     0
 9.8147     0
 9.8197     0
 9.8247     0
 9.8297     0
 9.8346     0
 9.8396     0
 9.8446     0
 9.8496     0
 9.8546     0
 9.8596     0
 9.8646     0
 9.8696     0
 9.8746     0
 9.8796     0
